File: notebook/K309/K309.msa
#FORMAT      : EMSA/MAS SPECTRAL DATA FILE
#VERSION     : 1.0
#TITLE       : Bruker AXS spectrum K309
#DATE        : 09-JUL-2008
#TIME        : 14:04
#OWNER       : Bruker AXS
#NPOINTS     : 4096.0
#NCOLUMNS    : 4.0
#XUNITS      : keV
#YUNITS      : Counts
#DATATYPE    : Y
#XPERCHAN    : 0.0050000
#OFFSET      : -0.4757000
#SIGNALTYPE  : EDS
#CHOFFSET    : 95
#BEAMKV   -kV: 15.0
#PROBECUR -nA: 3.93
#ELEVANGLE   : 35.0
#AZIMANGLE   : 0.0
#XTILTSTGE   : 0.0
#YTILTSTGE   : 0.0
#LIVETIME  -s: 59.339
#REALTIME  -s: 64.307
##RTDET      : XFlash 4040
#EDSDET      :
#TDEADLYR -cm: 0.000008
#TACTLYR  -cm: 0.045
##FANO       : 0.1030000
##MNFWHM -keV: 0.1221482
##IDENT      :
#SPECTRUM    :
         0.0,         0.0,         0.0,         0.0,
         0.0,         0.0,         0.0,         0.0,
         0.0,         0.0,         0.0,         0.0,
         0.0,         0.0,         0.0,         0.0,
         0.0,         0.0,         0.0,         0.0,
         0.0,         0.0,         0.0,         0.0,
         0.0,         0.0,         0.0,         0.0,
         0.0,         0.0,         0.0,         0.0,
         0.0,         0.0,         0.0,         0.0,
         0.0,         0.0,         0.0,         0.0,
         0.0,         3.0,        18.0,        58.0,
     11671.0,     23579.0,     43174.0,     71165.0,
    165569.0,    142933.0,    111661.0,     78008.0,
      2322.0,       500.0,         7.0,         0.0,
        13.0,        46.0,        83.0,       109.0,
       110.0,       105.0,       111.0,       118.0,
       129.0,       137.0,       143.0,       145.0,
       194.0,       211.0,       229.0,       253.0,
       517.0,       593.0,       684.0,       778.0,
       950.0,       886.0,       792.0,       704.0,
       381.0,       374.0,       381.0,       396.0,
       412.0,       412.0,       405.0,       403.0,
       457.0,       471.0,       485.0,       508.0,
       932.0,      1085.0,      1338.0,      1718.0,
      7545.0,     10241.0,     13486.0,     16938.0,
     30121.0,     29564.0,     27179.0,     23886.0,
      5744.0,      3866.0,      2421.0,      1695.0,
      1001.0,       951.0,       973.0,      1002.0,
       756.0,       771.0,       850.0,       913.0,
      1773.0,      2052.0,      2274.0,      2420.0,
      2324.0,      2233.0,      1904.0,      1660.0,
      1004.0,       964.0,       921.0,       898.0,
       845.0,       857.0,       783.0,       733.0,
       638.0,       657.0,       627.0,       604.0,
       600.0,       671.0,       605.0,       647.0,
       610.0,       689.0,       723.0,       683.0,
       815.0,       833.0,       833.0,       840.0,
       867.0,       898.0,       893.0,       858.0,
       972.0,       944.0,       939.0,       885.0,
       802.0,       802.0,       810.0,       832.0,
       729.0,       782.0,       747.0,       782.0,
       817.0,       820.0,       773.0,       842.0,
       819.0,       841.0,       822.0,       815.0,
       858.0,       893.0,       801.0,       871.0,
       928.0,       891.0,       895.0,       883.0,
       924.0,       906.0,       935.0,       895.0,
       958.0,       935.0,       927.0,       989.0,
      1112.0,      1222.0,      1412.0,      1635.0,
      4594.0,      5502.0,      6605.0,      7782.0,
     12585.0,     12660.0,     12832.0,     12500.0,
      7272.0,      6283.0,      5172.0,      4265.0,
      1771.0,      1600.0,      1446.0,      1244.0,
       978.0,       966.0,       962.0,       935.0,
      1031.0,      1168.0,      1304.0,      1607.0,
      5327.0,      6499.0,      8518.0,     10387.0,
     22618.0,     24020.0,     25500.0,     26415.0,
     21896.0,     19701.0,     17028.0,     14532.0,
      5600.0,      4577.0,      3824.0,      3123.0,
      1848.0,      1658.0,      1608.0,      1566.0,
      1029.0,       930.0,       868.0,       839.0,
       671.0,       650.0,       650.0,       683.0,
       602.0,       638.0,       658.0,       614.0,
       637.0,       639.0,       654.0,       648.0,
       669.0,       609.0,       660.0,       620.0,
       641.0,       624.0,       594.0,       644.0,
       625.0,       619.0,       626.0,       646.0,
       644.0,       636.0,       612.0,       610.0,
       629.0,       565.0,       628.0,       663.0,
       659.0,       624.0,       635.0,       611.0,
       606.0,       629.0,       669.0,       646.0,
       616.0,       606.0,       663.0,       625.0,
       599.0,       569.0,       599.0,       619.0,
       622.0,       582.0,       593.0,       610.0,
       612.0,       606.0,       617.0,       565.0,
       612.0,       617.0,       611.0,       608.0,
       580.0,       586.0,       574.0,       600.0,
       518.0,       574.0,       602.0,       539.0,
       559.0,       535.0,       549.0,       581.0,
       530.0,       558.0,       508.0,       591.0,
       549.0,       548.0,       561.0,       516.0,
       595.0,       593.0,       554.0,       554.0,
       517.0,       537.0,       556.0,       531.0,
       520.0,       527.0,       502.0,       525.0,
       497.0,       510.0,       526.0,       561.0,
       450.0,       515.0,       568.0,       518.0,
       494.0,       535.0,       516.0,       473.0,
       509.0,       501.0,       519.0,       480.0,
       560.0,       488.0,       525.0,       505.0,
       449.0,       492.0,       538.0,       463.0,
       514.0,       457.0,       501.0,       478.0,
       492.0,       542.0,       482.0,       509.0,
       472.0,       478.0,       497.0,       510.0,
       508.0,       468.0,       443.0,       520.0,
       477.0,       465.0,       493.0,       482.0,
       479.0,       447.0,       486.0,       447.0,
       456.0,       488.0,       462.0,       482.0,
       482.0,       419.0,       442.0,       437.0,
       436.0,       473.0,       442.0,       437.0,
       447.0,       427.0,       408.0,       447.0,
       485.0,       456.0,       484.0,       426.0,
       477.0,       487.0,       433.0,       444.0,
       534.0,       523.0,       600.0,       645.0,
      1153.0,      1275.0,      1536.0,      1819.0,
      3605.0,      4177.0,      4768.0,      5165.0,
      6995.0,      7219.0,      7372.0,      7257.0,
      6011.0,      5515.0,      5065.0,      4675.0,
      2425.0,      2002.0,      1670.0,      1436.0,
       712.0,       608.0,       601.0,       536.0,
       445.0,       406.0,       464.0,       363.0,
       470.0,       450.0,       465.0,       456.0,
       566.0,       570.0,       607.0,       659.0,
       878.0,       880.0,      1031.0,      1024.0,
      1258.0,      1184.0,      1196.0,      1231.0,
      1082.0,      1043.0,       981.0,       923.0,
       611.0,       638.0,       606.0,       531.0,
       381.0,       366.0,       399.0,       394.0,
       362.0,       358.0,       356.0,       374.0,
       346.0,       315.0,       330.0,       301.0,
       330.0,       329.0,       302.0,       373.0,
       310.0,       321.0,       336.0,       340.0,
       371.0,       377.0,       393.0,       363.0,
       499.0,       582.0,       610.0,       671.0,
      1111.0,      1274.0,      1369.0,      1407.0,
      2090.0,      2187.0,      2360.0,      2312.0,
      2382.0,      2250.0,      2121.0,      2071.0,
      1396.0,      1244.0,      1206.0,      1033.0,
       566.0,       537.0,       484.0,       464.0,
       335.0,       309.0,       325.0,       304.0,
       280.0,       262.0,       342.0,       313.0,
       292.0,       318.0,       298.0,       335.0,
       368.0,       386.0,       397.0,       435.0,
       575.0,       649.0,       680.0,       727.0,
      1068.0,      1032.0,      1097.0,      1139.0,
      1222.0,      1117.0,      1150.0,      1165.0,
       918.0,       888.0,       849.0,       785.0,
       609.0,       606.0,       563.0,       530.0,
       442.0,       425.0,       402.0,       391.0,
       341.0,       328.0,       309.0,       315.0,
       274.0,       293.0,       287.0,       305.0,
       314.0,       389.0,       397.0,       438.0,
       516.0,       512.0,       492.0,       531.0,
       574.0,       570.0,       555.0,       559.0,
       449.0,       436.0,       429.0,       398.0,
       310.0,       339.0,       313.0,       323.0,
       230.0,       241.0,       237.0,       228.0,
       239.0,       204.0,       221.0,       220.0,
       216.0,       265.0,       230.0,       238.0,
       246.0,       217.0,       249.0,       244.0,
       239.0,       268.0,       269.0,       241.0,
       259.0,       282.0,       331.0,       305.0,
       338.0,       344.0,       358.0,       353.0,
       335.0,       326.0,       335.0,       289.0,
       286.0,       253.0,       218.0,       223.0,
       204.0,       205.0,       229.0,       199.0,
       218.0,       213.0,       197.0,       190.0,
       215.0,       204.0,       220.0,       241.0,
       237.0,       250.0,       253.0,       236.0,
       284.0,       246.0,       241.0,       250.0,
       237.0,       225.0,       221.0,       222.0,
       222.0,       207.0,       224.0,       235.0,
       193.0,       194.0,       198.0,       206.0,
       213.0,       206.0,       177.0,       190.0,
       184.0,       191.0,       197.0,       190.0,
       195.0,       205.0,       183.0,       195.0,
       194.0,       185.0,       184.0,       199.0,
       164.0,       186.0,       194.0,       153.0,
       201.0,       175.0,       179.0,       201.0,
       180.0,       178.0,       174.0,       188.0,
       214.0,       231.0,       217.0,       245.0,
       380.0,       389.0,       408.0,       511.0,
       907.0,       875.0,      1041.0,      1155.0,
      1539.0,      1611.0,      1660.0,      1808.0,
      1958.0,      1876.0,      1845.0,      1776.0,
      1427.0,      1365.0,      1208.0,      1108.0,
       707.0,       665.0,       578.0,       519.0,
       317.0,       297.0,       239.0,       229.0,
       207.0,       173.0,       169.0,       145.0,
       155.0,       171.0,       151.0,       160.0,
       149.0,       171.0,       147.0,       139.0,
       149.0,       158.0,       150.0,       147.0,
       166.0,       172.0,       139.0,       157.0,
       155.0,       171.0,       155.0,       159.0,
       134.0,       159.0,       148.0,       136.0,
       172.0,       177.0,       143.0,       142.0,
       140.0,       144.0,       167.0,       155.0,
       165.0,       161.0,       190.0,       169.0,
       202.0,       226.0,       231.0,       253.0,
       294.0,       282.0,       323.0,       325.0,
       358.0,       364.0,       349.0,       390.0,
       330.0,       312.0,       328.0,       314.0,
       287.0,       203.0,       233.0,       195.0,
       161.0,       188.0,       169.0,       156.0,
       150.0,       157.0,       129.0,       130.0,
       134.0,       115.0,       128.0,       130.0,
       125.0,       117.0,       132.0,       132.0,
       110.0,       104.0,       136.0,       128.0,
       123.0,       114.0,       119.0,       144.0,
       121.0,       123.0,       130.0,       130.0,
       138.0,       159.0,       128.0,       118.0,
       115.0,       135.0,       147.0,       118.0,
       111.0,       110.0,       118.0,       117.0,
       129.0,       114.0,       118.0,       113.0,
       114.0,       125.0,       137.0,        97.0,
       111.0,       111.0,       122.0,       131.0,
       121.0,       114.0,       113.0,        98.0,
       126.0,        97.0,       107.0,       105.0,
       105.0,       117.0,       118.0,       123.0,
       107.0,       108.0,       113.0,        98.0,
       118.0,       118.0,       102.0,       114.0,
       102.0,       116.0,       114.0,       116.0,
       121.0,       117.0,       124.0,       110.0,
       109.0,       116.0,       116.0,       100.0,
       100.0,       101.0,        97.0,       119.0,
       100.0,        85.0,       109.0,       113.0,
        81.0,       115.0,       102.0,        94.0,
        89.0,        90.0,       110.0,       114.0,
        92.0,       115.0,        99.0,        98.0,
       106.0,       104.0,       119.0,       108.0,
        95.0,       100.0,       100.0,        98.0,
       102.0,        90.0,        92.0,       111.0,
       104.0,        90.0,        91.0,       110.0,
        98.0,       106.0,        83.0,        85.0,
       103.0,       104.0,        91.0,       120.0,
        92.0,       101.0,        89.0,        87.0,
        85.0,       101.0,        90.0,        92.0,
        79.0,        90.0,        92.0,        82.0,
       101.0,        98.0,        88.0,        85.0,
        84.0,        81.0,        80.0,        84.0,
        85.0,        83.0,        84.0,        84.0,
        98.0,        96.0,       106.0,        86.0,
        83.0,       102.0,        70.0,        84.0,
        80.0,        88.0,        87.0,        87.0,
        77.0,        90.0,        74.0,        84.0,
       101.0,       102.0,        85.0,        93.0,
        82.0,        68.0,        78.0,        71.0,
        83.0,        77.0,        96.0,        84.0,
        67.0,        69.0,        79.0,        78.0,
        71.0,        80.0,        82.0,        84.0,
        72.0,        86.0,        77.0,        82.0,
        93.0,        67.0,        92.0,        72.0,
        76.0,        78.0,        79.0,        78.0,
        62.0,        76.0,        86.0,        62.0,
        65.0,        84.0,        83.0,        76.0,
        67.0,        79.0,        70.0,        61.0,
        85.0,        77.0,        70.0,        69.0,
        68.0,        65.0,        64.0,        68.0,
        72.0,        64.0,        60.0,        69.0,
        69.0,        87.0,        78.0,        60.0,
        72.0,        84.0,        64.0,        50.0,
        76.0,        66.0,        73.0,        78.0,
        74.0,        76.0,        63.0,        61.0,
        84.0,        71.0,        74.0,        63.0,
        61.0,        60.0,        68.0,        71.0,
        68.0,        56.0,        72.0,        78.0,
        61.0,        64.0,        61.0,        62.0,
        48.0,        51.0,        63.0,        63.0,
        58.0,        72.0,        52.0,        67.0,
        62.0,        61.0,        47.0,        62.0,
        64.0,        75.0,        63.0,        58.0,
        77.0,        59.0,        53.0,        58.0,
        66.0,        67.0,        76.0,        66.0,
        55.0,        54.0,        53.0,        48.0,
        47.0,        54.0,        60.0,        73.0,
        61.0,        58.0,        65.0,        54.0,
        66.0,        61.0,        54.0,        58.0,
        50.0,        48.0,        43.0,        54.0,
        52.0,        55.0,        70.0,        60.0,
        56.0,        40.0,        43.0,        48.0,
        39.0,        48.0,        51.0,        51.0,
        54.0,        59.0,        56.0,        59.0,
        55.0,        58.0,        51.0,        53.0,
        52.0,        51.0,        48.0,        53.0,
        55.0,        36.0,        47.0,        50.0,
        54.0,        58.0,        43.0,        62.0,
        50.0,        60.0,        58.0,        52.0,
        38.0,        54.0,        49.0,        51.0,
        51.0,        49.0,        62.0,        50.0,
        45.0,        35.0,        51.0,        39.0,
        51.0,        55.0,        40.0,        46.0,
        40.0,        53.0,        43.0,        42.0,
        41.0,        43.0,        42.0,        49.0,
        39.0,        46.0,        46.0,        46.0,
        47.0,        55.0,        34.0,        33.0,
        28.0,        39.0,        47.0,        39.0,
        43.0,        38.0,        44.0,        49.0,
        42.0,        47.0,        50.0,        43.0,
        39.0,        29.0,        45.0,        32.0,
        34.0,        49.0,        49.0,        47.0,
        38.0,        34.0,        30.0,        30.0,
        50.0,        38.0,        38.0,        35.0,
        34.0,        50.0,        34.0,        55.0,
        31.0,        41.0,        34.0,        39.0,
        32.0,        34.0,        34.0,        35.0,
        27.0,        39.0,        36.0,        31.0,
        36.0,        26.0,        37.0,        40.0,
        33.0,        29.0,        35.0,        38.0,
        32.0,        43.0,        35.0,        33.0,
        22.0,        34.0,        36.0,        44.0,
        31.0,        40.0,        30.0,        39.0,
        40.0,        36.0,        33.0,        31.0,
        45.0,        21.0,        35.0,        33.0,
        32.0,        33.0,        31.0,        29.0,
        29.0,        34.0,        29.0,        33.0,
        24.0,        27.0,        20.0,        35.0,
        28.0,        30.0,        32.0,        31.0,
        22.0,        36.0,        29.0,        24.0,
        31.0,        31.0,        21.0,        24.0,
        32.0,        29.0,        31.0,        25.0,
        26.0,        29.0,        33.0,        30.0,
        31.0,        33.0,        28.0,        34.0,
        35.0,        28.0,        22.0,        19.0,
        27.0,        35.0,        22.0,        30.0,
        26.0,        22.0,        30.0,        39.0,
        21.0,        30.0,        33.0,        19.0,
        17.0,        21.0,        24.0,        23.0,
        29.0,        23.0,        25.0,        16.0,
        18.0,        20.0,        24.0,        22.0,
        18.0,        28.0,        19.0,        30.0,
        31.0,        14.0,        21.0,        38.0,
        11.0,        23.0,        23.0,        15.0,
        29.0,        18.0,        20.0,        21.0,
        20.0,        30.0,        17.0,        18.0,
        29.0,        21.0,        24.0,        21.0,
        19.0,        23.0,        14.0,        26.0,
        14.0,        19.0,        26.0,        20.0,
        22.0,        16.0,        13.0,        18.0,
        20.0,        12.0,        23.0,        29.0,
        23.0,        13.0,        18.0,        16.0,
        20.0,        16.0,        16.0,        14.0,
        10.0,        17.0,        16.0,        19.0,
        11.0,        13.0,        18.0,        29.0,
        18.0,        16.0,        16.0,        20.0,
        17.0,        17.0,        14.0,        14.0,
        12.0,        15.0,        15.0,        13.0,
        13.0,        16.0,        13.0,        15.0,
         8.0,        10.0,        16.0,        19.0,
        17.0,        13.0,        12.0,        16.0,
        14.0,        16.0,        17.0,        13.0,
        11.0,        17.0,        19.0,        18.0,
        13.0,        13.0,        15.0,        18.0,
        13.0,        11.0,        15.0,         5.0,
        13.0,        19.0,        15.0,        20.0,
        13.0,        13.0,        13.0,         5.0,
        17.0,        15.0,        18.0,         9.0,
        15.0,        12.0,         7.0,        16.0,
         8.0,        11.0,         8.0,        13.0,
         9.0,        10.0,        11.0,         9.0,
         7.0,         6.0,         7.0,        16.0,
        10.0,        11.0,        13.0,        13.0,
        14.0,         9.0,        11.0,         9.0,
        14.0,         6.0,        13.0,        19.0,
         7.0,         9.0,         6.0,        12.0,
        10.0,         7.0,         6.0,         8.0,
        13.0,         4.0,         6.0,         4.0,
         5.0,         7.0,        10.0,         7.0,
        12.0,        11.0,         7.0,         4.0,
         5.0,        10.0,         4.0,         9.0,
        14.0,         6.0,         5.0,         4.0,
         7.0,         9.0,        17.0,         6.0,
        11.0,        11.0,         5.0,         7.0,
         7.0,         3.0,         6.0,         7.0,
         4.0,         5.0,         3.0,         5.0,
         8.0,         2.0,         4.0,         5.0,
         8.0,         5.0,         7.0,         3.0,
         4.0,         6.0,         7.0,         5.0,
         6.0,         6.0,         4.0,         5.0,
         4.0,         7.0,         6.0,         5.0,
         3.0,         3.0,         5.0,         9.0,
         1.0,         5.0,         7.0,         2.0,
         1.0,         4.0,         3.0,         6.0,
         4.0,         4.0,         3.0,         5.0,
         4.0,         4.0,         4.0,         6.0,
         5.0,         3.0,         4.0,         4.0,
         6.0,         4.0,         6.0,         4.0,
         4.0,         3.0,         4.0,         3.0,
         4.0,         0.0,         3.0,         0.0,
         4.0,         2.0,         1.0,         0.0,
         1.0,         2.0,         2.0,         0.0,
         2.0,         3.0,         0.0,         2.0,
         3.0,         1.0,         6.0,         3.0,
         1.0,         4.0,         1.0,         2.0,
         0.0,         2.0,         2.0,         0.0,
         1.0,         1.0,         0.0,         0.0,
         0.0,         1.0,         0.0,         1.0,
         0.0,         1.0,         3.0,         0.0,
         1.0,         2.0,         0.0,         0.0,
         1.0,         0.0,         0.0,         1.0,
         1.0,         0.0,         0.0,         0.0,
         0.0,         0.0,         0.0,         0.0,
         0.0,         0.0,         0.0,         0.0,
         0.0,         0.0,         0.0,         0.0,
         0.0,         0.0,         0.0,         0.0,
         0.0,         0.0,         0.0,         0.0,
         0.0,         0.0,         0.0,         0.0,
         0.0,         0.0,         0.0,         0.0,
         0.0,         0.0,         0.0,         0.0,
         0.0,         0.0,         0.0,         0.0,
         0.0,         0.0,         0.0,         0.0,
         0.0,         0.0,         0.0,         0.0,
         0.0,         0.0,         0.0,         0.0,
         0.0,         0.0,         0.0,         0.0,
         0.0,         0.0,         0.0,         0.0,
         0.0,         0.0,         0.0,         0.0,
         0.0,         0.0,         0.0,         0.0,
         0.0,         0.0,         0.0,         0.0,
         0.0,         0.0,         0.0,         0.0,
         0.0,         0.0,         0.0,         0.0,
         0.0,         0.0,         0.0,         0.0,
         0.0,         0.0,         0.0,         0.0,
         0.0,         0.0,         0.0,         0.0,
         0.0,         0.0,         0.0,         0.0,
         0.0,         0.0,         0.0,         0.0,
         0.0,         0.0,         0.0,         0.0,
         0.0,         0.0,         0.0,         0.0,
         0.0,         0.0,         0.0,         0.0,
         0.0,         0.0,         0.0,         0.0,
         0.0,         0.0,         0.0,         0.0,
         1.0,         0.0,         0.0,         0.0,
         0.0,         0.0,         0.0,         0.0,
         0.0,         0.0,         0.0,         0.0,
         0.0,         0.0,         0.0,         0.0,
         0.0,         0.0,         0.0,         0.0,
         0.0,         0.0,         0.0,         0.0,
         0.0,         0.0,         0.0,         0.0,
         0.0,         0.0,         0.0,         0.0,
         0.0,         0.0,         0.0,         0.0,
         0.0,         0.0,         0.0,         0.0,
         0.0,         0.0,         0.0,         0.0,
         0.0,         0.0,         0.0,         0.0,
         0.0,         0.0,         0.0,         0.0,
         0.0,         0.0,         0.0,         0.0,
         0.0,         0.0,         0.0,         0.0,
         0.0,         0.0,         0.0,         0.0,
         0.0,         0.0,         0.0,         0.0,
         0.0,         0.0,         0.0,         0.0,
         0.0,         0.0,         0.0,         0.0,
         0.0,         0.0,         0.0,         0.0,
         0.0,         0.0,         0.0,         0.0,
         0.0,         0.0,         0.0,         0.0,
         0.0,         0.0,         0.0,         0.0,
         0.0,         0.0,         0.0,         0.0,
         0.0,         0.0,         0.0,         0.0,
         0.0,         0.0,         0.0,         0.0,
         0.0,         0.0,         0.0,         0.0,
         0.0,         0.0,         0.0,         0.0,
         0.0,         0.0,         0.0,         0.0,
         0.0,         0.0,         0.0,         0.0,
         0.0,         0.0,         0.0,         0.0,
         0.0,         0.0,         0.0,         0.0,
         0.0,         0.0,         0.0,         0.0,
         0.0,         0.0,         0.0,         0.0,
         0.0,         0.0,         0.0,         0.0,
         0.0,         0.0,         0.0,         0.0,
         0.0,         0.0,         0.0,         0.0,
         0.0,         0.0,         0.0,         0.0,
         0.0,         0.0,         0.0,         0.0,
         0.0,         0.0,         0.0,         0.0,
         0.0,         0.0,         0.0,         0.0,
         0.0,         0.0,         0.0,         0.0,
         0.0,         0.0,         0.0,         0.0,
         0.0,         0.0,         0.0,         0.0,
         0.0,         0.0,         0.0,         0.0,
         0.0,         0.0,         0.0,         0.0,
         0.0,         0.0,         0.0,         0.0,
         0.0,         0.0,         0.0,         0.0,
         0.0,         0.0,         0.0,         0.0,
         0.0,         0.0,         0.0,         0.0,
         2.0,         0.0,         0.0,         0.0,
         0.0,         0.0,         0.0,         0.0,
         0.0,         0.0,         0.0,         0.0,
         0.0,         0.0,         0.0,         0.0,
         0.0,         0.0,         0.0,         0.0,
         0.0,         0.0,         0.0,         0.0,
         0.0,         0.0,         0.0,         0.0,
         0.0,         0.0,         0.0,         0.0,
         0.0,         0.0,         0.0,         0.0,
         0.0,         0.0,         0.0,         0.0,
         0.0,         0.0,         0.0,         0.0,
         0.0,         0.0,         0.0,         0.0,
         0.0,         0.0,         0.0,         0.0,
         0.0,         0.0,         0.0,         0.0,
         0.0,         0.0,         0.0,         0.0,
         0.0,         0.0,         0.0,         0.0,
         0.0,         0.0,         0.0,         0.0,
         0.0,         0.0,         0.0,         0.0,
         0.0,         0.0,         0.0,         0.0,
         0.0,         0.0,         0.0,         0.0,
         0.0,         0.0,         0.0,         0.0,
         0.0,         0.0,         0.0,         0.0,
         0.0,         0.0,         0.0,         0.0,
         0.0,         0.0,         0.0,         0.0,
         0.0,         0.0,         0.0,         0.0,
         0.0,         0.0,         0.0,         0.0,
         0.0,         0.0,         0.0,         0.0,
         0.0,         0.0,         0.0,         0.0,
         0.0,         0.0,         0.0,         0.0,
         0.0,         0.0,         0.0,         0.0,
         0.0,         0.0,         0.0,         0.0,
         0.0,         0.0,         0.0,         0.0,
         0.0,         0.0,         0.0,         0.0,
         0.0,         0.0,         0.0,         0.0,
         0.0,         0.0,         0.0,         0.0,
         0.0,         0.0,         0.0,         0.0,
         0.0,         0.0,         0.0,         0.0,
         0.0,         0.0,         0.0,         0.0,
         0.0,         0.0,         0.0,         0.0,
         0.0,         0.0,         0.0,         0.0,
         0.0,         0.0,         0.0,         0.0,
         0.0,         0.0,         0.0,         0.0,
         0.0,         0.0,         0.0,         0.0,
         0.0,         0.0,         0.0,         0.0,
         0.0,         0.0,         0.0,         0.0,
         0.0,         0.0,         0.0,         0.0,
#ENDOFDATA   :