File: notebook/K309/Zn std.msa
#FORMAT      : EMSA/MAS Spectral Data File
#VERSION     : 1.0
#TITLE       : Bruker AXS spectrum Zn
#DATE        : 29-JUL-2008
#TIME        : 10:26
#OWNER       : Bruker AXS
#NPOINTS     : 4096
#NCOLUMNS    : 4
#XUNITS      : eV
#YUNITS      : counts
#DATATYPE    : Y
#XPERCHAN    : 5.00409
#OFFSET      : -477.824
#BEAMKV      : 15
#SIGNALTYPE  : EDS
#ELEVANGLE   : 40
#AZIMANGLE   : 180
#LIVETIME    : 59.358
#REALTIME    : 64.71
#PROBECUR    : 2.5
#TAUWIND     : 0
#TDEADLYR    : 0.00001
#TACTLYR     : 0.045
#TALWIND     : 0.003
#CHOFFSET    : 0.0
#XLABEL      : Energy (eV)
#YLABEL      : Counts
#EDSDET      : SDDUTW
##D2STDCMP   : Zn,(Zn:100.0),5.0
#SPECTRUM    :
0, 0, 0, 0,
0, 0, 0, 0,
0, 0, 0, 0,
0, 0, 0, 0,
0, 0, 0, 0,
0, 0, 0, 0,
0, 0, 0, 0,
0, 0, 0, 0,
0, 0, 0, 0,
0, 0, 0, 0,
0, 0, 0, 0,
0, 0, 0, 0,
0, 0, 0, 0,
0, 0, 0, 0,
0, 0, 0, 0,
0, 0, 0, 0,
0, 0, 0, 0,
0, 0, 0, 0,
0, 0, 0, 0,
0, 0, 0, 0,
1, 7, 22, 88,
337, 965, 2601, 6725,
15090, 31044, 56047, 92209,
134928, 178204, 209308, 223833,
212595, 182782, 142327, 99653,
63173, 35833, 18252, 8088,
2794, 591, 18, 0,
0, 0, 0, 4,
33, 78, 129, 165,
176, 171, 161, 160,
151, 152, 142, 140,
141, 140, 143, 143,
139, 137, 137, 139,
146, 154, 163, 173,
182, 190, 206, 225,
251, 280, 309, 346,
392, 445, 501, 546,
582, 615, 637, 634,
606, 543, 469, 400,
345, 291, 270, 228,
227, 211, 228, 230,
242, 269, 260, 269,
267, 308, 320, 336,
325, 333, 339, 339,
353, 352, 370, 387,
412, 419, 428, 433,
458, 503, 509, 516,
566, 587, 644, 689,
695, 788, 887, 926,
998, 1099, 1147, 1163,
1197, 1201, 1138, 1049,
994, 884, 846, 789,
765, 683, 635, 712,
707, 756, 756, 763,
737, 778, 774, 846,
873, 869, 885, 917,
902, 900, 942, 927,
1002, 1024, 1043, 1052,
1082, 1032, 1120, 1081,
1212, 1166, 1172, 1137,
1293, 1259, 1193, 1232,
1222, 1281, 1266, 1277,
1338, 1338, 1439, 1423,
1411, 1531, 1459, 1607,
1623, 1652, 1778, 1902,
1894, 2239, 2436, 2740,
3297, 3607, 4262, 4926,
5509, 6188, 6633, 7149,
7392, 7652, 7505, 7485,
7076, 6650, 6195, 5814,
5338, 5246, 5141, 5402,
6003, 7170, 8988, 11700,
15470, 20221, 26646, 33619,
42050, 51253, 61092, 69822,
77476, 82729, 85750, 86508,
83603, 78893, 71172, 63424,
53605, 44284, 36098, 28390,
21655, 16107, 11785, 8345,
6006, 4131, 3138, 2323,
1715, 1424, 1175, 997,
924, 831, 737, 656,
578, 553, 548, 509,
457, 436, 433, 441,
434, 409, 435, 442,
439, 449, 419, 412,
407, 413, 438, 407,
470, 413, 412, 420,
389, 424, 399, 409,
414, 458, 406, 383,
429, 425, 430, 448,
435, 460, 418, 480,
455, 477, 454, 468,
432, 463, 479, 481,
462, 487, 446, 451,
514, 503, 511, 529,
460, 507, 526, 538,
505, 480, 495, 546,
519, 515, 543, 539,
559, 569, 541, 524,
495, 531, 536, 496,
519, 541, 557, 545,
546, 526, 518, 523,
499, 545, 520, 518,
510, 553, 524, 489,
499, 581, 532, 576,
572, 537, 544, 541,
497, 529, 550, 521,
556, 550, 543, 571,
553, 551, 546, 607,
602, 573, 598, 609,
601, 598, 599, 640,
570, 626, 574, 596,
605, 623, 610, 643,
624, 607, 611, 554,
608, 653, 619, 622,
644, 601, 618, 633,
628, 579, 617, 623,
616, 564, 596, 632,
576, 590, 596, 561,
625, 558, 626, 600,
561, 589, 618, 557,
572, 602, 598, 619,
576, 620, 609, 630,
578, 598, 666, 680,
657, 721, 698, 731,
645, 642, 675, 672,
644, 621, 659, 631,
630, 683, 622, 587,
627, 606, 583, 565,
589, 633, 609, 570,
560, 610, 622, 597,
568, 612, 612, 621,
566, 607, 538, 571,
577, 593, 575, 614,
590, 590, 602, 591,
601, 600, 607, 607,
607, 672, 547, 586,
569, 588, 568, 592,
539, 608, 644, 624,
557, 596, 587, 605,
658, 563, 623, 597,
565, 611, 601, 588,
610, 591, 595, 609,
641, 600, 605, 552,
583, 603, 597, 578,
592, 548, 588, 625,
552, 602, 590, 551,
564, 563, 600, 580,
594, 590, 588, 547,
576, 584, 610, 577,
582, 642, 598, 543,
591, 552, 566, 590,
584, 633, 580, 636,
588, 580, 630, 549,
553, 556, 562, 555,
611, 594, 581, 574,
597, 589, 588, 563,
538, 558, 605, 557,
564, 561, 566, 564,
554, 531, 605, 564,
531, 587, 553, 529,
517, 553, 538, 580,
529, 526, 544, 575,
561, 573, 570, 505,
580, 601, 545, 593,
582, 555, 544, 564,
582, 544, 510, 530,
573, 549, 538, 558,
560, 524, 606, 540,
538, 575, 539, 552,
550, 562, 552, 557,
577, 557, 486, 522,
520, 517, 584, 551,
520, 572, 536, 513,
484, 604, 519, 527,
559, 545, 504, 518,
520, 535, 543, 552,
534, 519, 511, 549,
524, 498, 505, 523,
481, 535, 510, 529,
513, 512, 499, 513,
515, 517, 508, 508,
514, 512, 526, 488,
525, 487, 513, 496,
532, 507, 510, 515,
498, 491, 470, 557,
501, 488, 523, 518,
494, 469, 502, 524,
550, 490, 455, 488,
500, 494, 495, 506,
483, 462, 496, 485,
468, 472, 530, 463,
497, 481, 483, 501,
459, 499, 519, 490,
451, 480, 471, 478,
504, 499, 461, 477,
483, 500, 486, 512,
469, 438, 525, 482,
468, 464, 463, 484,
454, 479, 447, 450,
451, 475, 446, 473,
461, 454, 460, 475,
425, 499, 443, 478,
486, 484, 472, 470,
432, 451, 477, 489,
444, 465, 441, 433,
422, 451, 432, 413,
467, 469, 453, 447,
482, 430, 421, 429,
422, 456, 437, 459,
425, 467, 438, 450,
432, 489, 415, 429,
478, 434, 406, 445,
416, 436, 452, 425,
425, 426, 429, 396,
443, 429, 398, 459,
407, 417, 408, 442,
425, 449, 440, 409,
361, 386, 433, 418,
400, 385, 419, 443,
420, 430, 415, 428,
401, 403, 400, 403,
432, 391, 385, 444,
398, 389, 402, 415,
398, 391, 402, 408,
404, 414, 395, 394,
398, 386, 396, 401,
390, 409, 380, 372,
385, 398, 380, 388,
401, 400, 374, 388,
409, 425, 347, 399,
361, 411, 410, 386,
426, 378, 411, 410,
368, 378, 384, 366,
329, 374, 347, 365,
368, 391, 374, 378,
338, 368, 380, 388,
361, 377, 349, 360,
340, 360, 377, 362,
345, 423, 350, 369,
371, 412, 364, 364,
357, 356, 392, 355,
344, 327, 377, 345,
351, 344, 361, 380,
379, 345, 378, 338,
381, 349, 371, 387,
373, 348, 372, 337,
348, 366, 325, 358,
355, 343, 367, 371,
368, 352, 359, 335,
357, 352, 340, 343,
332, 358, 329, 348,
329, 347, 343, 329,
317, 336, 343, 356,
330, 314, 356, 336,
335, 362, 330, 357,
350, 314, 350, 344,
376, 317, 349, 322,
307, 334, 324, 347,
325, 355, 305, 305,
306, 327, 354, 340,
363, 311, 308, 317,
322, 323, 322, 318,
313, 333, 348, 318,
350, 327, 306, 336,
321, 310, 313, 309,
319, 308, 312, 292,
343, 340, 320, 308,
295, 310, 289, 275,
318, 316, 315, 331,
307, 299, 300, 309,
294, 282, 292, 308,
310, 300, 304, 305,
304, 319, 311, 311,
306, 296, 311, 293,
297, 341, 289, 307,
288, 304, 296, 299,
283, 324, 281, 321,
284, 282, 283, 310,
308, 308, 279, 294,
304, 283, 297, 268,
303, 300, 261, 314,
282, 274, 276, 250,
286, 281, 273, 310,
300, 300, 263, 295,
257, 289, 280, 270,
293, 286, 305, 267,
298, 270, 262, 259,
292, 258, 278, 287,
298, 281, 277, 279,
255, 246, 285, 280,
278, 258, 251, 237,
282, 260, 260, 306,
276, 285, 271, 293,
303, 248, 270, 294,
267, 287, 258, 282,
273, 277, 258, 257,
264, 279, 273, 253,
271, 273, 246, 250,
261, 271, 271, 267,
246, 260, 249, 265,
283, 283, 266, 269,
259, 248, 267, 267,
249, 275, 254, 261,
271, 270, 245, 278,
293, 244, 275, 240,
253, 237, 232, 262,
247, 271, 256, 238,
245, 271, 236, 252,
252, 249, 230, 252,
252, 246, 211, 229,
265, 228, 233, 280,
256, 226, 251, 237,
248, 238, 258, 224,
261, 262, 236, 267,
229, 241, 245, 235,
247, 218, 255, 210,
250, 218, 217, 217,
256, 229, 242, 266,
228, 216, 225, 228,
253, 233, 211, 200,
228, 253, 209, 237,
237, 229, 221, 230,
227, 214, 245, 223,
233, 206, 230, 232,
245, 220, 203, 224,
213, 206, 222, 223,
236, 199, 220, 220,
223, 233, 239, 193,
204, 221, 227, 212,
207, 197, 230, 210,
200, 234, 219, 231,
227, 226, 226, 220,
219, 215, 201, 214,
208, 197, 201, 206,
217, 210, 188, 227,
217, 211, 205, 205,
196, 211, 171, 214,
215, 225, 178, 219,
209, 217, 205, 217,
232, 196, 216, 229,
215, 232, 208, 210,
235, 245, 224, 228,
249, 209, 219, 208,
226, 218, 214, 219,
224, 235, 230, 219,
249, 209, 221, 207,
190, 223, 203, 206,
207, 216, 208, 189,
208, 201, 194, 183,
223, 190, 207, 192,
192, 159, 211, 174,
213, 192, 200, 184,
175, 198, 192, 195,
201, 162, 186, 210,
206, 192, 202, 165,
220, 174, 203, 182,
197, 189, 214, 189,
178, 176, 171, 173,
188, 178, 197, 209,
177, 206, 175, 168,
181, 172, 177, 186,
186, 191, 190, 185,
195, 168, 168, 161,
174, 154, 151, 198,
172, 182, 178, 178,
151, 164, 186, 171,
173, 173, 169, 182,
168, 189, 159, 180,
168, 170, 169, 179,
191, 193, 162, 192,
172, 158, 165, 182,
142, 194, 167, 154,
194, 166, 181, 181,
185, 181, 182, 181,
168, 170, 164, 206,
168, 185, 183, 178,
135, 148, 172, 177,
171, 161, 187, 180,
181, 147, 184, 178,
179, 178, 170, 169,
158, 145, 174, 148,
145, 168, 166, 182,
156, 168, 144, 143,
169, 155, 157, 158,
176, 157, 169, 172,
178, 178, 171, 161,
179, 156, 164, 185,
183, 158, 158, 160,
159, 140, 159, 165,
162, 171, 163, 161,
145, 138, 165, 174,
185, 167, 161, 156,
160, 149, 158, 171,
168, 166, 148, 156,
150, 161, 169, 161,
153, 171, 163, 164,
158, 167, 163, 152,
162, 151, 141, 159,
177, 156, 159, 152,
171, 167, 179, 141,
171, 121, 147, 151,
157, 180, 153, 144,
170, 155, 164, 159,
153, 146, 144, 128,
139, 146, 148, 144,
176, 155, 149, 161,
145, 157, 141, 161,
142, 145, 133, 154,
154, 154, 152, 132,
159, 138, 144, 154,
143, 135, 153, 153,
140, 137, 134, 108,
131, 124, 132, 130,
128, 132, 138, 140,
138, 147, 129, 131,
156, 132, 122, 157,
127, 148, 161, 142,
126, 124, 134, 129,
141, 143, 144, 127,
158, 150, 139, 114,
137, 128, 139, 123,
154, 130, 136, 145,
146, 137, 159, 131,
114, 136, 110, 133,
138, 134, 153, 135,
144, 137, 153, 111,
131, 123, 153, 126,
128, 142, 128, 129,
116, 123, 130, 112,
131, 128, 131, 139,
155, 131, 135, 121,
143, 129, 143, 120,
152, 141, 123, 132,
111, 137, 115, 127,
127, 143, 143, 138,
142, 122, 126, 135,
120, 136, 128, 127,
119, 127, 123, 147,
140, 122, 115, 114,
129, 133, 133, 134,
118, 118, 135, 159,
108, 127, 134, 135,
144, 158, 148, 145,
150, 148, 159, 151,
161, 174, 165, 175,
187, 209, 210, 263,
293, 333, 361, 477,
474, 458, 610, 706,
788, 834, 967, 1063,
1159, 1350, 1551, 1584,
1878, 2005, 2179, 2388,
2529, 2754, 3056, 3197,
3341, 3427, 3654, 3771,
3848, 3935, 4077, 4210,
4199, 4207, 4093, 4194,
3909, 3756, 3774, 3622,
3363, 3373, 3192, 2982,
2762, 2576, 2354, 2268,
1997, 1948, 1701, 1558,
1387, 1277, 1111, 976,
915, 819, 652, 593,
518, 444, 430, 354,
323, 280, 259, 222,
200, 182, 174, 167,
140, 139, 119, 119,
135, 131, 123, 126,
122, 99, 101, 105,
122, 92, 106, 112,
100, 117, 94, 112,
103, 100, 99, 124,
104, 100, 123, 107,
109, 101, 93, 113,
108, 107, 107, 101,
122, 96, 100, 109,
103, 105, 86, 101,
101, 111, 82, 91,
96, 117, 107, 84,
122, 98, 100, 97,
101, 112, 108, 117,
107, 121, 95, 103,
124, 89, 99, 100,
112, 91, 90, 106,
100, 102, 97, 101,
90, 106, 94, 112,
97, 93, 96, 112,
113, 120, 112, 94,
97, 93, 95, 117,
85, 109, 108, 105,
85, 93, 99, 83,
129, 95, 108, 115,
93, 107, 106, 92,
109, 102, 88, 104,
130, 127, 119, 110,
147, 123, 166, 144,
185, 150, 175, 193,
220, 212, 230, 253,
280, 276, 302, 317,
351, 329, 388, 421,
432, 448, 463, 471,
517, 540, 555, 559,
557, 594, 622, 605,
599, 631, 578, 601,
597, 599, 543, 545,
511, 495, 500, 501,
437, 431, 404, 340,
312, 311, 291, 299,
257, 235, 218, 202,
202, 170, 186, 167,
140, 153, 121, 121,
110, 123, 106, 104,
98, 85, 95, 82,
95, 81, 70, 99,
77, 84, 86, 71,
66, 77, 73, 89,
84, 54, 69, 72,
70, 81, 65, 72,
82, 59, 78, 62,
63, 69, 76, 56,
56, 85, 65, 79,
86, 71, 73, 68,
79, 78, 68, 67,
71, 65, 66, 84,
64, 78, 68, 69,
76, 86, 73, 61,
66, 72, 77, 71,
61, 83, 61, 62,
71, 74, 86, 75,
81, 70, 60, 76,
71, 75, 60, 70,
49, 69, 85, 71,
73, 72, 49, 59,
71, 71, 53, 81,
66, 72, 62, 61,
75, 62, 67, 67,
64, 75, 72, 79,
71, 65, 69, 75,
63, 62, 62, 55,
63, 83, 64, 79,
70, 61, 81, 58,
65, 68, 67, 68,
45, 60, 69, 71,
62, 63, 67, 57,
61, 56, 60, 51,
56, 54, 54, 56,
77, 76, 59, 47,
54, 67, 71, 68,
53, 51, 71, 56,
65, 68, 72, 59,
55, 80, 63, 58,
59, 69, 70, 56,
67, 70, 62, 64,
70, 57, 56, 57,
66, 58, 56, 71,
49, 53, 69, 58,
68, 54, 52, 69,
58, 49, 52, 57,
63, 62, 48, 45,
52, 45, 56, 50,
60, 64, 61, 49,
51, 51, 53, 57,
53, 75, 70, 62,
45, 62, 64, 53,
50, 47, 50, 61,
54, 61, 71, 63,
48, 52, 44, 43,
59, 47, 50, 53,
45, 39, 57, 50,
49, 56, 55, 49,
42, 54, 54, 57,
61, 54, 43, 43,
55, 51, 58, 43,
51, 51, 31, 60,
45, 37, 64, 51,
57, 51, 44, 52,
54, 54, 41, 50,
51, 53, 54, 35,
49, 55, 52, 55,
45, 65, 51, 40,
39, 62, 50, 51,
46, 45, 53, 43,
41, 45, 37, 39,
47, 45, 65, 52,
49, 31, 30, 56,
38, 52, 45, 46,
59, 50, 51, 48,
46, 48, 48, 48,
44, 64, 54, 41,
42, 49, 35, 51,
46, 44, 42, 33,
38, 31, 51, 47,
48, 54, 35, 45,
46, 35, 38, 37,
38, 46, 52, 52,
48, 49, 48, 44,
48, 35, 41, 35,
48, 33, 44, 50,
43, 50, 37, 45,
59, 43, 38, 38,
38, 43, 48, 28,
42, 32, 35, 46,
38, 39, 44, 41,
54, 29, 37, 47,
42, 38, 42, 41,
53, 49, 51, 28,
50, 49, 41, 46,
41, 33, 45, 39,
37, 48, 34, 35,
41, 26, 41, 35,
48, 40, 45, 46,
41, 24, 37, 41,
32, 38, 35, 41,
39, 42, 37, 31,
45, 34, 39, 30,
41, 43, 32, 37,
40, 40, 34, 34,
31, 44, 32, 28,
43, 33, 36, 38,
44, 39, 28, 50,
30, 42, 36, 35,
37, 32, 39, 46,
35, 32, 41, 27,
45, 27, 35, 45,
26, 38, 33, 40,
35, 36, 38, 37,
22, 36, 32, 35,
45, 37, 43, 29,
29, 35, 32, 35,
27, 31, 28, 33,
37, 25, 31, 38,
42, 27, 27, 32,
32, 28, 48, 34,
30, 30, 38, 28,
23, 28, 33, 29,
45, 41, 35, 22,
24, 37, 33, 33,
24, 26, 28, 35,
34, 32, 36, 32,
24, 23, 23, 43,
22, 33, 41, 31,
33, 26, 30, 25,
35, 28, 29, 20,
19, 24, 31, 32,
29, 26, 38, 30,
22, 19, 29, 29,
34, 39, 27, 21,
29, 24, 27, 25,
27, 33, 23, 25,
31, 28, 21, 28,
38, 41, 28, 20,
21, 30, 23, 25,
28, 21, 22, 27,
24, 28, 19, 27,
29, 28, 28, 21,
25, 24, 27, 22,
18, 29, 23, 26,
27, 21, 27, 28,
38, 22, 34, 23,
27, 24, 24, 31,
22, 20, 18, 28,
23, 30, 14, 29,
26, 17, 19, 21,
21, 19, 23, 24,
20, 29, 22, 25,
19, 25, 11, 29,
20, 17, 20, 23,
21, 19, 33, 19,
34, 23, 16, 26,
13, 22, 16, 29,
18, 18, 26, 17,
18, 29, 23, 19,
27, 23, 18, 30,
23, 23, 27, 27,
25, 22, 24, 21,
12, 21, 29, 18,
21, 21, 15, 21,
15, 23, 18, 23,
19, 22, 22, 18,
14, 14, 15, 19,
18, 18, 20, 19,
12, 15, 18, 14,
17, 20, 20, 20,
17, 18, 18, 16,
21, 18, 28, 19,
20, 11, 18, 15,
22, 14, 16, 25,
16, 16, 21, 21,
25, 18, 23, 25,
16, 22, 12, 17,
23, 19, 15, 17,
23, 13, 20, 12,
23, 20, 14, 15,
23, 16, 16, 20,
11, 16, 17, 15,
14, 19, 17, 17,
17, 23, 12, 16,
18, 21, 14, 8,
21, 14, 12, 23,
16, 17, 12, 14,
10, 15, 12, 18,
11, 15, 16, 16,
15, 17, 17, 11,
12, 9, 13, 20,
19, 10, 13, 13,
11, 17, 19, 13,
18, 19, 15, 17,
16, 10, 18, 12,
15, 16, 12, 6,
10, 17, 10, 7,
18, 11, 9, 10,
16, 13, 9, 13,
16, 4, 10, 14,
11, 14, 13, 15,
7, 13, 8, 10,
15, 9, 15, 9,
6, 13, 9, 10,
17, 10, 11, 11,
7, 11, 12, 18,
16, 7, 14, 8,
3, 5, 12, 8,
11, 14, 12, 5,
10, 10, 10, 14,
9, 9, 8, 6,
12, 12, 11, 9,
13, 10, 15, 13,
13, 12, 10, 12,
7, 10, 9, 10,
10, 5, 5, 11,
8, 14, 12, 6,
6, 7, 9, 16,
9, 7, 14, 7,
6, 5, 2, 12,
8, 4, 3, 11,
6, 7, 7, 7,
3, 4, 5, 12,
8, 7, 6, 2,
6, 5, 5, 9,
8, 7, 6, 10,
8, 8, 8, 9,
7, 4, 6, 8,
5, 8, 5, 6,
2, 3, 6, 6,
3, 5, 8, 9,
6, 5, 7, 8,
9, 4, 9, 7,
6, 7, 11, 4,
6, 4, 6, 3,
7, 8, 6, 2,
5, 4, 4, 9,
8, 6, 5, 4,
4, 6, 2, 4,
5, 2, 2, 3,
4, 1, 7, 4,
6, 5, 4, 6,
2, 3, 7, 6,
4, 11, 6, 4,
4, 4, 2, 3,
1, 3, 2, 4,
7, 2, 4, 2,
5, 5, 1, 4,
2, 4, 4, 3,
1, 1, 3, 3,
2, 2, 4, 4,
0, 2, 1, 2,
3, 5, 3, 3,
0, 2, 2, 0,
2, 3, 2, 3,
1, 2, 0, 1,
3, 1, 0, 0,
0, 3, 1, 2,
1, 1, 0, 1,
0, 0, 0, 0,
0, 1, 0, 0,
0, 0, 2, 0,
1, 1, 1, 0,
0, 1, 0, 1,
1, 0, 1, 0,
0, 0, 0, 0,
0, 0, 0, 0,
0, 1, 0, 0,
1, 0, 0, 0,
0, 0, 0, 0,
0, 0, 0, 1,
0, 0, 2, 0,
0, 0, 0, 0,
0, 0, 0, 0,
0, 0, 0, 0,
0, 0, 0, 0,
0, 0, 1, 0,
0, 0, 0, 0,
1, 0, 0, 0,
0, 0, 0, 0,
0, 0, 0, 0,
0, 0, 0, 0,
0, 1, 0, 0,
0, 0, 0, 0,
0, 0, 0, 0,
0, 0, 0, 0,
0, 0, 0, 0,
0, 0, 0, 0,
0, 0, 1, 0,
0, 0, 1, 0,
0, 0, 0, 0,
0, 0, 0, 0,
0, 0, 0, 0,
0, 0, 0, 0,
0, 0, 0, 0,
0, 0, 0, 0,
0, 0, 0, 0,
0, 0, 0, 0,
0, 0, 0, 0,
0, 0, 0, 0,
0, 0, 0, 0,
0, 0, 0, 0,
0, 0, 0, 0,
0, 0, 0, 0,
0, 0, 0, 0,
0, 0, 0, 0,
0, 0, 1, 0,
0, 0, 1, 0,
0, 0, 0, 0,
0, 0, 0, 0,
0, 0, 0, 1,
0, 0, 0, 0,
0, 0, 0, 0,
0, 0, 0, 0,
0, 0, 1, 0,
0, 0, 0, 0,
0, 0, 0, 0,
0, 0, 0, 0,
0, 0, 0, 0,
0, 0, 0, 0,
0, 0, 0, 0,
1, 0, 0, 0,
0, 0, 0, 0,
0, 0, 0, 0,
0, 0, 0, 0,
0, 0, 1, 0,
0, 0, 0, 0,
0, 0, 0, 0,
0, 0, 0, 0,
0, 1, 0, 0,
0, 0, 0, 0,
0, 0, 0, 0,
0, 0, 0, 0,
0, 0, 0, 0,
0, 0, 1, 1,
0, 0, 0, 0,
0, 0, 0, 0,
0, 0, 0, 0,
0, 0, 0, 0,
0, 0, 0, 0,
1, 0, 0, 1,
0, 1, 0, 0,
0, 0, 0, 0,
0, 0, 0, 0,
0, 0, 0, 0,
0, 0, 0, 0,
0, 0, 0, 0,
0, 0, 0, 0,
0, 0, 0, 0,
0, 0, 0, 0,
0, 0, 0, 0,
0, 0, 0, 0,
0, 0, 0, 0,
0, 0, 0, 0,
0, 0, 0, 0,
0, 0, 0, 0,
0, 0, 0, 0,
0, 0, 0, 0,
0, 0, 0, 0,
0, 0, 0, 0,
0, 0, 0, 0,
0, 0, 0, 0,
0, 0, 0, 1,
1, 0, 0, 0,
1, 0, 0, 0,
0, 0, 0, 0,
0, 0, 0, 0,
0, 0, 0, 0,
0, 0, 0, 1,
0, 0, 0, 1,
0, 0, 0, 0,
0, 0, 0, 0,
0, 0, 0, 1,
0, 1, 1, 0,
1, 0, 0, 1,
0, 0, 1, 0,
0, 0, 0, 0,
0, 0, 0, 0,
0, 0, 0, 0,
0, 0, 0, 0,
0, 0, 0, 0,
0, 0, 0, 0,
0, 0, 0, 0,
0, 0, 0, 0,
0, 0, 0, 0,
0, 0, 0, 0,
0, 0, 0, 0,
0, 0, 0, 0,
0, 0, 0, 0,
0, 0, 0, 0,
0, 0, 0, 0,
0, 0, 0, 0,
0, 0, 0, 0,
1, 0, 0, 0,
0, 0, 0, 0,
0, 0, 0, 0,
0, 0, 0, 0,
0, 0, 0, 1,
0, 0, 0, 0,
0, 0, 0, 0,
0, 0, 0, 0,
0, 0, 0, 0,
0, 0, 0, 0,
0, 0, 0, 0,
0, 0, 0, 0,
0, 0, 0, 0,
0, 1, 0, 0,
0, 0, 0, 0,
0, 0, 0, 0,
0, 0, 0, 0,
0, 0, 0, 0,
0, 0, 0, 0,
0, 0, 0, 0,
0, 0, 0, 0,
1, 0, 1, 0,
0, 0, 0, 0,
0, 0, 0, 0,
0, 0, 0, 0,
1, 0, 0, 0,
0, 0, 1, 1,
0, 0, 0, 0,
0, 0, 0, 1,
0, 0, 0, 0,
0, 0, 0, 0,
0, 0, 0, 0,
0, 0, 0, 0,
0, 0, 0, 0,
0, 0, 0, 0,
0, 0, 0, 0,
1, 0, 0, 0,
0, 0, 0, 0,
0, 0, 0, 0,
0, 0, 0, 0,
0, 0, 0, 0,
0, 0, 0, 0,
0, 0, 0, 0,
0, 0, 0, 0,
0, 0, 0, 0,
0, 0, 0, 0,
0, 0, 0, 0,
0, 0, 0, 0,
0, 0, 0, 0,
0, 0, 0, 0,
0, 0, 0, 0,
0, 0, 0, 0,
0, 0, 0, 0,
0, 0, 0, 0,
0, 0, 0, 0,
0, 0, 0, 0,
0, 0, 0, 0,
0, 0, 0, 0,
0, 0, 0, 0,
0, 0, 0, 0,
0, 0, 0, 0,
0, 0, 0, 0,
0, 0, 0, 0,
0, 1, 0, 0,
0, 0, 0, 0,
0, 0, 0, 0,
0, 0, 0, 0,
0, 0, 0, 0,
0, 0, 0, 0,
0, 0, 0, 0,
0, 0, 0, 0,
0, 0, 0, 0,
0, 0, 0, 0,
0, 0, 0, 0,
0, 0, 0, 0,
0, 0, 0, 0,
0, 0, 0, 0,
0, 0, 0, 0,
0, 0, 0, 0,
0, 0, 0, 0,
0, 0, 0, 0,
0, 0, 0, 0,
0, 0, 0, 0,
0, 0, 0, 0,
0, 0, 0, 0,
0, 0, 0, 0,
0, 0, 0, 0,
0, 0, 0, 0,
0, 0, 0, 0,
0, 0, 0, 0,
0, 0, 0, 0,
0, 0, 0, 0,
0, 0, 0, 0,
0, 0, 0, 0,
0, 0, 0, 0,
0, 0, 0, 0,
0, 0, 0, 0,
0, 0, 0, 0,
0, 0, 0, 0,
0, 0, 0, 0,
0, 0, 0, 0,
0, 0, 0, 0,
0, 0, 0, 0,
0, 0, 0, 0,
0, 0, 0, 0,
0, 0, 0, 0,
0, 0, 0, 0,
0, 0, 0, 0,
0, 0, 0, 0,
0, 0, 0, 0,
0, 0, 0, 0,
0, 0, 0, 0,
0, 0, 0, 0,
0, 0, 0, 0,
0, 0, 0, 0,
0, 0, 0, 0,
0, 0, 0, 0,
0, 0, 0, 0,
0, 0, 0, 0,
#ENDOFDATA   :