File: weave/spectra/Ag std.msa
#FORMAT      : EMSA/MAS Spectral Data File
#VERSION     : 1.0
#TITLE       : Ag std
#DATE        : 15-MAY-2018
#TIME        : 01:52
#OWNER       : Unknown
#NPOINTS     : 4096
#NCOLUMNS    : 1
#XUNITS      : eV
#YUNITS      : counts
#DATATYPE    : Y
#XPERCHAN    : 9.99856
#OFFSET      : 1.63032
#BEAMKV      : 25
#SIGNALTYPE  : EDS
#ELEVANGLE   : 35
#AZIMANGLE   : 0
#LIVETIME    : 1210.86
#REALTIME    : 1713.6
#PROBECUR    : 0.93864
#TDEADLYR    : 0
#TACTLYR     : 0.045
#TALWIND     : 0.003
#CHOFFSET    : 0.0
#XLABEL      : Energy (eV)
#YLABEL      : Counts
#EDSDET      : SDUTW
##SPECIMEN   : Ag std
##D2STDCMP   : Ag,(Ag:100.0),5.0
##DET_HASH   : 97086dfe-e5c2-9c77-3984-1d0b14bbbf41
##CALIB_HASH : 1a36e884-c26d-3547-51b1-d0bb2efdf95a
##WORKING    : 16.99 mm
##SAMPLE     : <BulkSample id="1">\n<mOrientation id="2">\n<double>0.0</double>\n<double>0.0</double>\n<double>-1.0</double>\n</mOrientation>\n</BulkSample>
#SPECTRUM    :
19,
40,
24,
13,
68,
383,
1764,
7342,
25014,
48819,
51075,
36544,
25400,
19027,
13506,
14670,
27439,
49561,
41931,
21777,
15833,
16395,
21818,
22968,
18691,
16861,
17159,
18319,
19962,
22019,
23513,
24210,
24695,
25731,
27570,
28592,
29583,
30980,
32908,
36326,
47923,
64422,
63496,
48656,
41466,
41851,
48483,
54307,
55402,
57306,
57032,
50918,
46891,
46079,
45871,
46135,
46988,
50852,
52559,
51868,
51077,
49690,
48868,
47870,
48305,
49150,
50146,
51293,
51851,
52126,
53120,
56695,
64093,
71913,
72927,
75837,
84139,
86283,
75572,
62660,
57023,
56799,
57769,
57876,
59792,
67779,
91458,
127787,
145239,
122827,
89144,
71074,
72460,
82937,
91373,
101216,
166248,
444729,
1117534,
1901249,
2024356,
1351043,
654597,
462754,
680245,
913597,
852796,
594010,
371759,
250471,
215358,
234529,
235755,
179569,
108840,
71573,
70204,
80010,
76650,
57637,
39031,
29923,
29308,
33808,
40303,
43090,
39515,
33066,
27451,
25127,
25265,
25676,
25588,
25010,
24828,
24424,
24463,
24357,
24508,
24862,
25553,
25819,
25801,
25403,
25275,
25076,
25200,
25222,
25242,
25446,
25868,
25606,
25462,
25373,
25140,
25734,
25516,
25413,
25384,
25597,
25543,
25559,
25751,
25931,
25745,
25538,
25583,
25707,
25672,
25676,
25756,
25317,
25874,
25623,
25490,
25336,
25910,
26126,
26168,
27101,
26887,
27595,
26862,
25906,
25693,
25400,
25434,
24988,
25136,
25364,
25021,
25077,
24987,
25057,
24902,
25425,
25975,
26448,
27819,
28435,
28348,
27340,
26843,
26552,
27002,
26989,
27016,
26242,
25618,
25452,
26092,
27191,
28590,
29609,
28974,
27134,
25596,
24419,
23763,
23223,
22901,
22966,
22805,
22585,
22593,
22554,
22603,
22274,
21937,
22154,
21997,
22045,
22192,
22193,
22154,
22138,
21828,
21515,
21777,
21432,
21418,
21055,
20830,
21107,
20840,
20525,
21020,
21486,
21301,
21443,
21385,
20899,
20443,
20517,
20176,
19930,
19837,
19744,
19443,
20035,
19594,
19481,
19437,
19473,
19326,
19424,
19382,
19539,
19557,
19535,
19086,
19063,
19135,
18859,
18791,
18653,
18455,
18464,
18191,
18315,
18223,
18086,
18085,
17881,
17908,
18304,
17969,
17701,
17563,
17776,
17710,
17469,
17339,
17344,
17424,
17144,
17195,
16862,
16716,
16904,
16622,
16652,
16543,
16312,
16513,
16212,
16000,
16344,
16085,
16019,
15979,
15773,
15783,
15792,
15740,
15718,
15635,
15588,
15243,
15342,
15229,
15178,
15395,
15199,
14842,
15097,
15167,
14924,
15021,
15467,
16120,
16645,
17045,
17269,
16359,
16006,
15338,
14497,
14268,
14002,
14047,
13795,
13844,
13678,
13606,
13364,
13567,
13442,
13658,
13790,
13899,
13934,
13920,
13734,
13635,
12921,
12966,
12749,
12760,
12516,
12556,
12467,
12372,
12368,
12296,
11916,
11995,
12081,
11906,
11898,
11838,
11740,
11763,
11782,
11648,
11418,
11460,
11473,
11235,
11319,
11114,
11178,
11004,
11227,
10995,
10960,
11026,
10774,
10880,
10742,
10686,
10924,
11233,
11274,
11439,
11549,
11510,
10946,
11082,
10738,
10798,
10262,
10088,
10066,
9824,
9668,
9770,
9525,
9504,
9365,
9467,
9362,
9366,
9447,
9209,
9419,
9384,
9160,
9413,
9502,
9544,
9399,
9273,
8995,
8859,
8765,
8742,
8456,
8371,
8421,
8191,
8230,
8216,
8062,
8252,
7928,
7976,
8011,
7647,
7773,
7678,
7707,
7728,
7565,
7578,
7325,
7409,
7261,
7414,
7389,
7261,
6992,
7161,
7060,
7187,
6917,
6929,
6883,
6907,
6824,
6805,
6766,
6874,
6716,
6637,
6539,
6375,
6292,
6440,
6291,
6313,
6209,
6273,
6182,
6196,
6195,
6009,
5811,
5877,
5853,
5905,
5731,
5670,
5501,
5645,
5548,
5508,
5499,
5546,
5498,
5338,
5464,
5407,
5318,
5333,
5216,
5041,
5127,
5073,
5075,
5012,
4907,
4949,
4886,
4762,
4852,
4800,
4696,
4644,
4653,
4633,
4689,
4632,
4572,
4421,
4396,
4446,
4373,
4349,
4352,
4289,
4409,
4283,
4309,
4261,
4319,
4290,
4136,
4131,
4013,
3925,
3992,
3941,
3924,
3841,
3690,
3863,
3719,
3608,
3549,
3519,
3516,
3535,
3556,
3538,
3464,
3506,
3343,
3422,
3351,
3362,
3287,
3232,
3219,
3312,
3214,
3170,
3137,
3134,
3043,
3045,
2989,
3009,
2922,
3023,
2946,
2812,
2923,
2807,
2843,
2672,
2704,
2720,
2751,
2621,
2634,
2571,
2499,
2617,
2519,
2479,
2477,
2519,
2530,
2499,
2429,
2361,
2384,
2347,
2445,
2407,
2342,
2257,
2247,
2219,
2268,
2228,
2171,
2104,
2074,
2093,
2111,
1979,
2027,
2044,
1956,
2005,
1950,
1983,
1869,
1865,
1920,
1841,
1937,
1760,
1761,
1766,
1805,
1731,
1732,
1694,
1729,
1690,
1596,
1627,
1684,
1632,
1605,
1579,
1562,
1553,
1549,
1555,
1503,
1427,
1473,
1448,
1431,
1449,
1423,
1409,
1452,
1442,
1407,
1355,
1306,
1374,
1307,
1277,
1263,
1228,
1247,
1208,
1205,
1226,
1207,
1165,
1183,
1115,
1091,
1110,
1107,
1028,
1099,
1079,
1011,
1073,
1012,
965,
953,
994,
990,
974,
970,
865,
919,
941,
902,
876,
851,
926,
856,
812,
809,
792,
806,
819,
751,
780,
781,
769,
760,
802,
676,
702,
731,
716,
658,
693,
673,
672,
649,
677,
655,
609,
570,
651,
607,
608,
579,
589,
576,
600,
582,
552,
569,
494,
543,
476,
504,
465,
509,
465,
491,
492,
492,
463,
473,
416,
455,
440,
416,
399,
417,
410,
365,
379,
367,
366,
350,
377,
343,
353,
344,
311,
316,
317,
365,
297,
348,
262,
290,
298,
279,
293,
266,
285,
244,
262,
271,
253,
221,
256,
209,
242,
234,
214,
193,
201,
214,
211,
185,
197,
209,
180,
167,
194,
177,
169,
162,
164,
147,
127,
132,
133,
149,
125,
137,
125,
127,
117,
120,
128,
118,
114,
99,
104,
85,
99,
104,
69,
84,
72,
90,
92,
81,
77,
83,
55,
59,
45,
61,
50,
45,
52,
36,
54,
49,
44,
33,
39,
30,
28,
29,
32,
22,
15,
22,
24,
15,
14,
12,
16,
17,
6,
8,
8,
3,
6,
3,
4,
5,
6,
1,
3,
1,
6,
1,
4,
1,
3,
1,
6,
2,
4,
2,
3,
4,
4,
3,
3,
2,
4,
3,
4,
2,
3,
5,
3,
0,
2,
3,
2,
4,
1,
2,
1,
0,
3,
3,
4,
1,
1,
3,
4,
4,
0,
0,
1,
4,
2,
3,
2,
1,
3,
2,
1,
1,
1,
2,
2,
3,
0,
2,
0,
1,
2,
2,
3,
1,
3,
2,
1,
0,
0,
1,
1,
2,
2,
0,
1,
1,
0,
1,
1,
2,
0,
1,
2,
2,
0,
0,
2,
0,
2,
2,
2,
2,
0,
2,
0,
2,
1,
2,
1,
1,
0,
0,
1,
0,
2,
0,
0,
1,
1,
0,
0,
1,
2,
2,
0,
0,
0,
1,
3,
0,
0,
1,
0,
0,
1,
0,
1,
1,
0,
1,
1,
0,
0,
2,
1,
1,
1,
1,
1,
0,
1,
2,
1,
0,
0,
0,
0,
0,
1,
0,
1,
0,
1,
1,
0,
1,
1,
1,
1,
0,
0,
0,
0,
0,
1,
1,
0,
1,
0,
0,
0,
1,
0,
0,
1,
0,
2,
0,
1,
1,
0,
1,
0,
0,
0,
0,
0,
0,
0,
0,
0,
1,
0,
0,
0,
1,
0,
0,
0,
1,
1,
0,
0,
0,
0,
0,
1,
0,
1,
0,
0,
0,
0,
1,
0,
0,
0,
0,
0,
0,
0,
0,
0,
0,
0,
0,
0,
0,
0,
0,
0,
1,
0,
0,
0,
0,
0,
0,
0,
0,
0,
0,
1,
0,
0,
0,
1,
0,
0,
0,
0,
0,
0,
0,
0,
0,
0,
0,
1,
0,
0,
1,
0,
2,
0,
0,
0,
0,
0,
1,
0,
0,
0,
0,
0,
0,
0,
0,
0,
1,
0,
0,
0,
1,
0,
0,
0,
0,
0,
0,
1,
0,
0,
0,
0,
0,
0,
1,
0,
0,
0,
0,
1,
0,
0,
0,
0,
0,
0,
0,
0,
0,
0,
0,
0,
1,
0,
0,
0,
0,
0,
0,
0,
0,
0,
0,
0,
0,
0,
0,
0,
0,
0,
0,
0,
0,
0,
0,
0,
0,
1,
1,
0,
0,
0,
0,
0,
0,
0,
0,
0,
0,
0,
0,
0,
0,
0,
0,
0,
0,
0,
0,
0,
0,
0,
1,
0,
0,
0,
0,
0,
0,
0,
0,
0,
0,
0,
0,
0,
0,
0,
0,
0,
0,
0,
0,
0,
0,
0,
0,
0,
0,
0,
0,
0,
0,
0,
0,
0,
0,
0,
0,
0,
0,
0,
0,
0,
0,
0,
0,
0,
0,
0,
0,
0,
0,
0,
0,
0,
0,
0,
0,
0,
0,
0,
0,
0,
0,
0,
0,
0,
0,
0,
0,
0,
0,
0,
0,
0,
0,
0,
0,
0,
0,
0,
0,
0,
0,
0,
0,
0,
0,
0,
0,
0,
0,
0,
0,
0,
0,
0,
0,
0,
0,
0,
1,
0,
0,
0,
0,
0,
0,
0,
0,
0,
0,
0,
0,
0,
0,
0,
0,
0,
0,
0,
0,
0,
0,
0,
0,
0,
0,
0,
0,
0,
0,
0,
0,
0,
0,
0,
0,
0,
0,
0,
0,
0,
0,
0,
0,
0,
0,
0,
0,
0,
0,
0,
0,
0,
0,
#ENDOFDATA   :