File: weave/spectra/Au std.msa
#FORMAT      : EMSA/MAS Spectral Data File
#VERSION     : 1.0
#TITLE       : Au std
#DATE        : 15-MAY-2018
#TIME        : 02:52
#OWNER       : Unknown
#NPOINTS     : 4096
#NCOLUMNS    : 1
#XUNITS      : eV
#YUNITS      : counts
#DATATYPE    : Y
#XPERCHAN    : 9.99856
#OFFSET      : 1.63032
#BEAMKV      : 25
#SIGNALTYPE  : EDS
#ELEVANGLE   : 35
#AZIMANGLE   : 0
#LIVETIME    : 1161.13
#REALTIME    : 1829.08
#PROBECUR    : 0.9413
#TDEADLYR    : 0
#TACTLYR     : 0.045
#TALWIND     : 0.003
#CHOFFSET    : 0.0
#XLABEL      : Energy (eV)
#YLABEL      : Counts
#EDSDET      : SDUTW
##SPECIMEN   : Au std
##D2STDCMP   : Au,(Au:100.0),9.0
##DET_HASH   : 97086dfe-e5c2-9c77-3984-1d0b14bbbf41
##CALIB_HASH : 1a36e884-c26d-3547-51b1-d0bb2efdf95a
##WORKING    : 16.99 mm
##SAMPLE     : <BulkSample id="1">\n<mOrientation id="2">\n<double>0.0</double>\n<double>0.0</double>\n<double>-1.0</double>\n</mOrientation>\n</BulkSample>
#SPECTRUM    :
23,
32,
19,
17,
65,
408,
1746,
6335,
20830,
32968,
22166,
20854,
47239,
56888,
38746,
44247,
42549,
32554,
25640,
21687,
21931,
23962,
26930,
29325,
30147,
30522,
32288,
34109,
36956,
39111,
40682,
42737,
44055,
46241,
48374,
49960,
51593,
53401,
55188,
57076,
59188,
60853,
62940,
63941,
65463,
66254,
67612,
70435,
77463,
88287,
90675,
82190,
79729,
94255,
139268,
183145,
168028,
124009,
99542,
89944,
84204,
81424,
80017,
81161,
88947,
102966,
120250,
153572,
296307,
790240,
1656110,
2149322,
1931144,
1640488,
1304347,
730374,
274169,
97038,
62053,
72793,
87991,
84242,
62534,
44769,
37292,
35311,
36281,
38186,
39476,
40095,
41052,
45484,
49376,
50747,
48147,
43472,
39455,
37560,
36208,
36504,
36575,
36484,
36508,
37077,
37036,
37197,
37023,
36344,
36726,
36495,
37003,
37541,
37772,
38022,
37935,
37194,
36677,
36936,
37287,
37096,
37639,
38242,
38048,
38624,
38405,
38817,
38972,
39179,
39207,
39116,
39694,
39520,
39621,
39309,
39853,
39822,
40140,
40074,
40545,
40754,
42333,
43516,
44669,
45680,
45677,
44804,
44059,
43081,
42061,
41238,
40995,
40948,
40384,
40421,
40744,
40627,
40629,
40331,
40555,
40163,
40570,
40546,
40394,
39925,
40194,
40817,
39951,
39853,
40496,
39612,
40171,
40178,
39863,
39874,
39988,
39933,
39804,
39853,
40168,
40377,
40958,
41003,
39983,
39744,
39579,
39038,
39257,
38923,
38754,
38861,
39177,
38501,
38375,
38597,
38375,
38320,
38286,
38294,
38551,
37776,
37860,
37385,
37569,
37153,
37048,
37332,
36750,
36824,
37104,
36780,
37346,
38219,
39258,
40003,
39713,
38771,
37652,
36270,
36000,
35783,
35824,
35407,
35219,
34805,
34846,
34782,
34807,
34701,
34610,
34463,
34222,
34224,
34111,
34417,
34231,
33833,
33837,
33878,
33050,
33359,
33461,
32849,
32936,
32883,
32534,
32525,
32797,
32895,
32948,
33419,
32982,
32700,
32087,
31762,
31325,
31258,
31251,
30903,
31106,
30977,
31038,
30455,
30668,
30608,
30769,
30662,
30642,
30401,
30266,
29886,
29984,
29777,
29441,
29259,
29739,
29390,
29428,
29731,
30330,
31861,
34829,
39063,
43007,
45032,
44000,
40454,
35862,
32207,
29698,
28364,
27866,
27457,
27520,
27338,
27533,
27148,
26735,
26571,
26579,
26518,
26526,
26462,
26163,
26506,
26027,
25993,
26066,
25931,
25794,
25779,
25710,
25927,
26069,
26189,
26662,
27992,
31674,
39348,
55985,
87156,
138580,
205997,
278314,
332207,
338371,
294062,
221377,
145092,
86493,
51980,
35253,
28323,
25595,
24834,
23889,
23574,
23042,
22737,
22577,
22772,
23172,
23365,
24324,
24409,
24394,
23923,
23351,
22527,
22532,
22271,
22127,
22427,
22193,
21730,
21639,
21220,
20707,
20570,
20140,
19947,
20018,
19921,
19912,
19738,
19782,
19645,
20186,
20646,
21755,
23103,
25526,
28176,
30091,
31167,
31112,
31985,
35999,
45264,
62055,
84342,
106826,
122986,
128269,
125054,
118452,
110212,
100132,
88227,
72898,
56275,
41856,
31641,
25736,
23072,
22069,
22790,
22658,
22592,
21180,
19748,
18667,
17223,
16123,
15211,
14647,
14495,
14416,
14162,
13942,
13648,
13642,
13447,
13432,
13598,
13435,
13647,
13623,
13737,
14034,
13916,
14216,
14120,
14149,
13541,
13129,
13146,
12741,
12727,
12800,
12696,
12817,
12927,
12835,
12722,
12625,
12450,
12371,
12159,
12188,
12777,
13288,
14805,
17117,
20367,
23638,
26081,
26504,
25338,
22791,
19426,
16323,
14145,
13426,
12801,
13256,
13916,
14170,
14778,
14961,
14687,
13960,
13002,
12047,
11193,
10617,
10135,
9698,
9671,
9443,
9375,
9366,
9244,
9452,
9358,
9431,
9598,
9412,
9323,
9381,
8932,
8604,
8618,
8640,
8370,
8287,
8323,
8217,
8154,
8301,
8202,
8069,
8134,
8131,
7960,
8133,
7784,
7655,
7778,
7611,
7651,
7609,
7504,
7553,
7330,
7445,
7291,
7132,
7147,
7092,
7006,
7151,
6942,
7019,
6909,
6738,
6774,
6816,
6915,
6918,
6850,
6754,
6879,
6749,
6669,
6820,
6623,
6675,
6517,
6455,
6346,
6239,
6133,
6060,
5958,
6075,
5881,
5948,
5826,
5723,
5676,
5683,
5620,
5515,
5415,
5589,
5472,
5464,
5404,
5355,
5408,
5255,
5171,
5175,
5184,
5227,
5047,
5026,
5095,
4965,
4861,
4749,
4880,
4784,
4727,
4651,
4728,
4482,
4584,
4584,
4645,
4436,
4388,
4427,
4349,
4325,
4375,
4241,
4228,
4131,
4221,
4096,
4166,
4150,
4127,
4080,
4003,
4086,
3969,
3958,
3895,
3880,
3900,
3752,
3736,
3798,
3669,
3584,
3668,
3500,
3537,
3445,
3499,
3490,
3350,
3425,
3274,
3358,
3314,
3287,
3202,
3259,
3104,
3105,
3214,
2978,
3003,
2995,
3022,
2937,
2990,
2886,
2835,
2832,
2868,
2803,
2850,
2741,
2646,
2696,
2734,
2539,
2698,
2533,
2660,
2481,
2531,
2495,
2497,
2448,
2366,
2376,
2352,
2340,
2383,
2365,
2265,
2253,
2278,
2242,
2268,
2255,
2144,
2221,
2096,
2053,
2004,
2027,
2021,
1891,
1934,
1966,
1928,
1944,
1880,
1842,
1816,
1886,
1855,
1772,
1740,
1804,
1710,
1735,
1689,
1709,
1624,
1581,
1615,
1593,
1542,
1522,
1490,
1508,
1449,
1461,
1480,
1447,
1428,
1417,
1364,
1413,
1394,
1391,
1397,
1333,
1353,
1325,
1285,
1224,
1268,
1232,
1160,
1274,
1226,
1171,
1190,
1215,
1194,
1150,
1117,
1120,
1115,
1081,
1048,
1093,
1021,
1014,
984,
970,
952,
966,
897,
896,
924,
891,
931,
844,
831,
791,
859,
811,
796,
810,
800,
774,
747,
751,
705,
733,
677,
713,
698,
678,
718,
701,
641,
629,
623,
598,
685,
593,
606,
568,
544,
552,
538,
550,
494,
493,
524,
467,
460,
493,
485,
508,
451,
441,
470,
443,
437,
457,
429,
410,
396,
363,
363,
371,
365,
332,
297,
352,
335,
363,
333,
330,
332,
295,
316,
263,
266,
238,
260,
254,
235,
250,
235,
199,
249,
211,
201,
209,
202,
181,
179,
184,
168,
175,
151,
138,
147,
121,
144,
124,
137,
132,
124,
101,
121,
124,
97,
88,
82,
70,
91,
73,
66,
61,
59,
55,
51,
45,
37,
40,
17,
33,
23,
15,
17,
15,
13,
16,
18,
11,
7,
17,
15,
10,
7,
5,
6,
13,
10,
12,
11,
11,
7,
15,
14,
10,
8,
5,
12,
9,
9,
7,
15,
8,
7,
10,
10,
6,
6,
5,
11,
10,
9,
10,
5,
10,
7,
5,
9,
9,
7,
8,
13,
11,
9,
6,
11,
10,
6,
9,
6,
7,
6,
6,
10,
7,
8,
5,
4,
14,
4,
5,
7,
7,
7,
5,
6,
5,
3,
7,
10,
5,
0,
7,
5,
3,
4,
5,
1,
10,
11,
7,
2,
0,
4,
3,
2,
4,
4,
0,
2,
4,
2,
3,
2,
2,
2,
2,
2,
3,
3,
5,
4,
3,
3,
2,
1,
3,
5,
1,
1,
5,
3,
4,
3,
4,
3,
2,
4,
4,
0,
2,
4,
2,
6,
3,
1,
3,
1,
3,
3,
5,
2,
5,
1,
3,
3,
1,
4,
0,
4,
1,
2,
2,
2,
4,
2,
1,
1,
2,
1,
1,
2,
1,
2,
2,
2,
3,
1,
2,
3,
1,
1,
1,
4,
1,
1,
1,
1,
2,
1,
1,
5,
1,
0,
0,
1,
0,
0,
1,
2,
1,
1,
2,
1,
2,
3,
2,
2,
0,
1,
2,
1,
1,
1,
1,
0,
1,
2,
1,
2,
0,
1,
2,
1,
2,
1,
1,
4,
1,
1,
1,
3,
0,
2,
0,
2,
0,
1,
3,
4,
1,
0,
0,
1,
0,
0,
0,
1,
0,
0,
1,
1,
1,
2,
0,
1,
0,
1,
3,
0,
2,
0,
0,
1,
1,
0,
1,
1,
1,
2,
0,
1,
3,
2,
1,
0,
1,
0,
0,
0,
0,
0,
2,
0,
1,
0,
0,
0,
1,
0,
1,
1,
1,
0,
0,
0,
0,
0,
0,
1,
0,
0,
0,
0,
1,
1,
0,
0,
1,
0,
0,
0,
1,
0,
0,
1,
1,
1,
0,
0,
1,
0,
0,
0,
0,
0,
0,
0,
0,
0,
1,
0,
1,
0,
0,
0,
1,
1,
0,
1,
0,
1,
0,
0,
0,
0,
0,
0,
1,
0,
0,
0,
0,
0,
0,
0,
0,
0,
0,
0,
0,
0,
0,
0,
0,
1,
0,
0,
0,
0,
0,
0,
0,
0,
0,
0,
0,
1,
0,
0,
0,
0,
0,
0,
1,
0,
0,
0,
1,
0,
0,
0,
0,
0,
0,
0,
0,
0,
0,
0,
0,
0,
0,
0,
0,
0,
0,
0,
0,
0,
0,
0,
0,
0,
0,
0,
0,
0,
0,
0,
0,
0,
0,
0,
0,
0,
0,
0,
0,
0,
0,
0,
0,
0,
0,
0,
0,
0,
0,
0,
0,
0,
0,
0,
0,
0,
0,
0,
0,
0,
0,
0,
0,
0,
0,
0,
0,
0,
0,
0,
0,
0,
1,
0,
0,
0,
0,
0,
0,
0,
0,
0,
0,
0,
0,
0,
0,
0,
0,
0,
0,
0,
0,
0,
0,
0,
0,
0,
0,
0,
0,
0,
0,
0,
0,
0,
0,
0,
0,
0,
0,
0,
0,
0,
0,
0,
0,
0,
0,
0,
0,
0,
0,
0,
0,
0,
0,
0,
0,
0,
0,
0,
0,
0,
0,
0,
0,
0,
0,
0,
0,
0,
0,
0,
0,
0,
0,
0,
0,
0,
0,
0,
#ENDOFDATA   :