File: weave/spectra/B std.msa
#FORMAT      : EMSA/MAS Spectral Data File
#VERSION     : 1.0
#TITLE       : B std
#DATE        : 15-MAY-2018
#TIME        : 09:02
#OWNER       : Unknown
#NPOINTS     : 4096
#NCOLUMNS    : 1
#XUNITS      : eV
#YUNITS      : counts
#DATATYPE    : Y
#XPERCHAN    : 9.99856
#OFFSET      : 1.63032
#BEAMKV      : 25
#SIGNALTYPE  : EDS
#ELEVANGLE   : 35
#AZIMANGLE   : 0
#LIVETIME    : 1196.59
#REALTIME    : 1233.63
#PROBECUR    : 0.95111
#TDEADLYR    : 0
#TACTLYR     : 0.045
#TALWIND     : 0.003
#CHOFFSET    : 0.0
#XLABEL      : Energy (eV)
#YLABEL      : Counts
#EDSDET      : SDUTW
##SPECIMEN   : B std
##D2STDCMP   : B,(B:100.0),5.0
##DET_HASH   : 97086dfe-e5c2-9c77-3984-1d0b14bbbf41
##CALIB_HASH : 1a36e884-c26d-3547-51b1-d0bb2efdf95a
##WORKING    : 16.99 mm
##SAMPLE     : <BulkSample id="1">\n<mOrientation id="2">\n<double>0.0</double>\n<double>0.0</double>\n<double>-1.0</double>\n</mOrientation>\n</BulkSample>
#SPECTRUM    :
26,
21,
7,
17,
703,
10194,
29006,
14988,
3093,
2843,
1744,
1341,
1372,
1251,
1436,
1761,
2363,
3252,
3031,
2881,
3325,
3920,
4887,
5743,
6016,
6452,
7110,
7831,
8592,
9705,
10601,
11270,
11968,
12626,
13193,
14052,
14644,
15007,
15671,
15910,
16600,
17629,
17701,
17567,
17474,
17486,
17673,
17609,
18512,
19514,
19493,
18342,
17279,
16590,
16644,
16639,
17039,
18723,
19474,
18571,
16902,
15781,
15048,
14544,
14490,
14209,
14227,
14015,
14070,
13677,
13557,
13479,
13233,
13312,
13250,
12577,
12451,
12386,
12133,
11899,
11735,
11598,
11433,
11172,
11221,
10901,
10728,
10911,
10697,
10450,
10315,
10170,
9977,
9985,
10001,
9556,
9438,
9370,
9380,
9347,
9199,
8890,
8932,
8632,
8672,
8361,
8330,
8288,
8295,
8223,
8070,
8032,
7670,
7659,
7656,
7404,
7448,
7332,
7457,
7173,
7293,
7315,
7238,
7384,
7197,
7050,
6682,
6526,
6520,
6293,
6221,
6385,
6183,
6078,
5915,
6016,
5757,
5719,
5730,
5881,
5771,
5705,
5522,
5372,
5457,
5387,
5213,
5229,
5225,
5122,
5049,
5045,
4934,
5020,
4791,
4916,
4676,
4659,
4782,
4561,
4502,
4492,
4514,
4405,
4509,
4283,
4412,
4257,
4234,
4180,
4077,
4070,
4173,
4016,
3871,
3878,
3925,
3916,
3926,
4040,
4113,
3998,
3899,
3852,
3737,
3578,
3656,
3492,
3469,
3403,
3461,
3399,
3435,
3344,
3336,
3445,
3454,
3254,
3318,
3137,
3193,
3106,
3044,
3097,
3102,
2861,
3001,
2997,
2922,
3150,
3195,
3742,
4247,
4437,
4481,
3821,
3416,
2993,
2928,
2725,
2716,
2656,
2611,
2631,
2631,
2481,
2473,
2551,
2476,
2556,
2509,
2428,
2509,
2510,
2524,
2671,
2511,
2503,
2319,
2372,
2350,
2313,
2308,
2250,
2244,
2212,
2210,
2237,
2228,
2241,
2122,
2160,
2133,
2021,
2037,
2000,
2009,
1978,
1991,
2002,
1976,
2041,
1929,
1940,
1891,
1870,
1893,
1994,
1982,
1928,
1839,
1798,
1847,
1844,
1814,
1770,
1777,
1733,
1704,
1713,
1682,
1681,
1692,
1727,
1701,
1682,
1579,
1542,
1533,
1619,
1585,
1547,
1514,
1549,
1485,
1552,
1504,
1501,
1487,
1424,
1450,
1438,
1440,
1405,
1433,
1364,
1358,
1373,
1340,
1407,
1418,
1371,
1303,
1319,
1299,
1301,
1307,
1314,
1283,
1245,
1269,
1281,
1308,
1303,
1277,
1172,
1215,
1233,
1212,
1228,
1219,
1175,
1148,
1148,
1176,
1198,
1149,
1162,
1144,
1113,
1103,
1045,
1132,
1117,
1063,
1079,
1045,
1054,
1010,
1086,
1082,
1062,
1089,
1039,
977,
989,
990,
974,
986,
1014,
934,
971,
900,
858,
908,
907,
947,
895,
902,
889,
843,
852,
834,
865,
800,
826,
836,
837,
765,
802,
791,
840,
804,
799,
789,
781,
768,
761,
737,
756,
725,
742,
689,
717,
767,
689,
714,
669,
686,
709,
704,
612,
619,
667,
665,
620,
605,
653,
660,
606,
668,
661,
648,
605,
621,
609,
620,
593,
622,
623,
628,
554,
575,
571,
563,
556,
570,
516,
521,
582,
527,
505,
541,
531,
508,
538,
524,
525,
505,
490,
520,
512,
477,
491,
468,
456,
459,
484,
475,
431,
457,
457,
442,
414,
429,
411,
424,
381,
399,
403,
410,
391,
406,
378,
431,
397,
398,
390,
401,
370,
368,
375,
335,
372,
368,
364,
310,
336,
362,
347,
304,
348,
332,
322,
312,
323,
361,
321,
282,
316,
321,
290,
285,
289,
327,
284,
290,
276,
255,
292,
301,
291,
263,
236,
254,
263,
240,
271,
267,
247,
237,
239,
250,
229,
233,
242,
242,
241,
255,
272,
230,
232,
249,
258,
241,
222,
190,
202,
233,
209,
196,
200,
200,
194,
190,
196,
182,
180,
168,
172,
178,
173,
170,
173,
170,
191,
165,
163,
162,
172,
159,
152,
173,
167,
174,
163,
148,
157,
123,
150,
156,
157,
147,
163,
117,
129,
151,
148,
125,
132,
136,
151,
124,
122,
129,
136,
132,
118,
123,
105,
117,
117,
109,
123,
129,
109,
114,
112,
116,
132,
113,
101,
116,
90,
97,
105,
108,
94,
95,
95,
79,
89,
92,
65,
87,
78,
70,
78,
90,
85,
81,
81,
66,
79,
81,
71,
73,
56,
88,
66,
74,
66,
64,
75,
68,
89,
70,
68,
59,
73,
65,
60,
73,
71,
58,
55,
60,
63,
49,
49,
53,
62,
66,
61,
58,
59,
56,
53,
41,
59,
37,
47,
61,
41,
47,
37,
41,
40,
50,
47,
46,
42,
37,
40,
34,
54,
55,
48,
35,
38,
32,
27,
36,
45,
35,
28,
43,
31,
26,
45,
37,
29,
28,
37,
45,
35,
34,
31,
30,
29,
23,
26,
20,
21,
23,
38,
20,
28,
31,
28,
19,
23,
33,
23,
23,
18,
21,
24,
28,
17,
21,
15,
19,
17,
14,
15,
15,
21,
14,
16,
10,
20,
14,
11,
21,
21,
17,
13,
19,
11,
12,
15,
9,
13,
17,
14,
9,
9,
17,
17,
7,
9,
9,
12,
14,
6,
12,
12,
10,
11,
12,
8,
5,
7,
11,
12,
7,
5,
7,
8,
7,
5,
6,
5,
8,
4,
4,
9,
5,
4,
2,
5,
5,
4,
9,
2,
3,
5,
6,
5,
3,
5,
2,
2,
5,
4,
4,
5,
5,
2,
2,
2,
3,
2,
2,
4,
1,
5,
2,
0,
3,
3,
2,
2,
2,
2,
3,
1,
0,
2,
3,
1,
0,
2,
3,
1,
1,
0,
4,
0,
2,
3,
2,
0,
0,
0,
0,
0,
0,
1,
0,
0,
0,
1,
0,
0,
0,
0,
0,
0,
0,
0,
0,
0,
0,
0,
0,
0,
0,
0,
0,
0,
0,
0,
0,
0,
0,
0,
0,
0,
0,
0,
0,
0,
0,
0,
0,
0,
0,
0,
0,
0,
0,
0,
0,
0,
0,
0,
0,
0,
0,
0,
0,
0,
1,
0,
0,
0,
0,
0,
0,
0,
0,
0,
0,
0,
0,
0,
0,
0,
0,
0,
0,
0,
0,
1,
0,
0,
0,
0,
0,
0,
0,
0,
0,
0,
0,
0,
0,
0,
0,
0,
0,
0,
0,
0,
0,
0,
0,
0,
0,
0,
0,
0,
0,
0,
0,
0,
0,
0,
0,
0,
0,
0,
0,
0,
0,
0,
0,
0,
0,
0,
0,
0,
0,
0,
0,
0,
0,
0,
0,
0,
0,
0,
0,
0,
0,
0,
0,
0,
0,
0,
0,
0,
0,
0,
0,
0,
0,
0,
0,
0,
0,
0,
0,
0,
0,
0,
0,
0,
0,
0,
0,
0,
0,
0,
0,
0,
0,
0,
0,
0,
0,
0,
0,
0,
0,
0,
0,
0,
0,
0,
0,
0,
0,
0,
0,
0,
0,
0,
0,
0,
0,
0,
0,
0,
0,
0,
0,
0,
0,
0,
0,
0,
0,
0,
0,
0,
0,
0,
0,
0,
0,
0,
0,
0,
0,
0,
0,
0,
0,
0,
0,
0,
0,
0,
0,
0,
0,
0,
0,
0,
0,
0,
0,
0,
0,
0,
1,
0,
0,
0,
0,
0,
0,
0,
0,
0,
0,
0,
0,
0,
0,
0,
0,
0,
0,
0,
0,
0,
0,
0,
0,
0,
0,
0,
0,
0,
0,
0,
0,
0,
0,
0,
0,
0,
0,
0,
0,
0,
0,
0,
0,
0,
0,
0,
0,
0,
0,
0,
0,
0,
0,
0,
0,
0,
0,
0,
0,
0,
0,
0,
0,
0,
0,
0,
0,
0,
0,
0,
0,
0,
0,
0,
0,
0,
0,
0,
0,
0,
0,
0,
0,
0,
0,
0,
0,
0,
0,
0,
0,
0,
0,
0,
0,
0,
0,
0,
0,
0,
0,
0,
0,
0,
0,
0,
0,
0,
0,
0,
0,
0,
0,
0,
0,
0,
0,
0,
0,
0,
0,
0,
0,
0,
0,
0,
0,
0,
0,
0,
0,
0,
0,
0,
0,
0,
0,
0,
0,
0,
0,
0,
0,
0,
0,
0,
0,
0,
0,
0,
0,
0,
0,
0,
0,
0,
0,
0,
0,
0,
0,
0,
0,
0,
0,
0,
0,
0,
0,
0,
0,
0,
0,
0,
0,
0,
0,
0,
0,
0,
0,
0,
0,
0,
0,
0,
0,
0,
0,
0,
0,
0,
0,
0,
0,
0,
0,
0,
0,
0,
0,
0,
0,
0,
0,
0,
0,
0,
0,
0,
0,
0,
0,
0,
0,
0,
0,
0,
0,
0,
0,
0,
0,
0,
0,
0,
0,
0,
0,
0,
0,
0,
0,
0,
0,
0,
0,
0,
0,
0,
0,
0,
0,
0,
0,
0,
0,
0,
0,
0,
0,
0,
0,
0,
0,
0,
0,
0,
0,
0,
0,
0,
0,
0,
0,
0,
0,
0,
0,
0,
0,
0,
0,
0,
0,
0,
0,
0,
0,
0,
0,
0,
0,
0,
0,
0,
0,
0,
0,
0,
0,
0,
0,
0,
0,
0,
#ENDOFDATA   :