File: weave/spectra/Bi std.msa
#FORMAT      : EMSA/MAS Spectral Data File
#VERSION     : 1.0
#TITLE       : Bi std
#DATE        : 16-MAY-2018
#TIME        : 03:11
#OWNER       : Unknown
#NPOINTS     : 4096
#NCOLUMNS    : 1
#XUNITS      : eV
#YUNITS      : counts
#DATATYPE    : Y
#XPERCHAN    : 9.99856
#OFFSET      : 1.63032
#BEAMKV      : 25
#SIGNALTYPE  : EDS
#ELEVANGLE   : 35
#AZIMANGLE   : 0
#LIVETIME    : 1133.18
#REALTIME    : 1760.53
#PROBECUR    : 0.90981
#TDEADLYR    : 0
#TACTLYR     : 0.045
#TALWIND     : 0.003
#CHOFFSET    : 0.0
#XLABEL      : Energy (eV)
#YLABEL      : Counts
#EDSDET      : SDUTW
##SPECIMEN   : Bi std
##D2STDCMP   : Bi,(Bi:100.0),5.0
##DET_HASH   : 97086dfe-e5c2-9c77-3984-1d0b14bbbf41
##CALIB_HASH : 1a36e884-c26d-3547-51b1-d0bb2efdf95a
##WORKING    : 17.0 mm
##SAMPLE     : <BulkSample id="1">\n<mOrientation id="2">\n<double>0.0</double>\n<double>0.0</double>\n<double>-1.0</double>\n</mOrientation>\n</BulkSample>
#SPECTRUM    :
34,
67,
30,
13,
96,
765,
3317,
10600,
26644,
38873,
24648,
16125,
17638,
18637,
17953,
20553,
34876,
59142,
49564,
27482,
24323,
38948,
75980,
81868,
50040,
42260,
50176,
44765,
36936,
34938,
35668,
37219,
39210,
41112,
41891,
42994,
44082,
44963,
46623,
48129,
49611,
51431,
53343,
54888,
56165,
56891,
58105,
60046,
63352,
68363,
69534,
66395,
63351,
62096,
63071,
64171,
66137,
68916,
72354,
74136,
80377,
97583,
131281,
155499,
140471,
105954,
84180,
78237,
75895,
74559,
74370,
75763,
79643,
88258,
99377,
104974,
108148,
134685,
279000,
736039,
1491146,
1890913,
1595959,
1288363,
1273484,
1060782,
593959,
239854,
101509,
74744,
84867,
97228,
89933,
67611,
48171,
39018,
36431,
36421,
37668,
40077,
42125,
42418,
41369,
42374,
46706,
52294,
55127,
54369,
50508,
46415,
42245,
39625,
38011,
36895,
35987,
35999,
36099,
36700,
36873,
37395,
37356,
38268,
38994,
38364,
37797,
37008,
36946,
37091,
37735,
38290,
38464,
38044,
37640,
37719,
36796,
36635,
36925,
37311,
37068,
37101,
37944,
37613,
37449,
37983,
37973,
38249,
38198,
38830,
40418,
43214,
45316,
45019,
42346,
40074,
38607,
38328,
38317,
38737,
38579,
39066,
40214,
41298,
41990,
42929,
43177,
43074,
42720,
41373,
40557,
39568,
39283,
38388,
38196,
38066,
38045,
37731,
37546,
37584,
37499,
37576,
37336,
37617,
37058,
37260,
37143,
37007,
37591,
36980,
37115,
37286,
36750,
36602,
36557,
36507,
36523,
36126,
36212,
36052,
36099,
35802,
36235,
35529,
35612,
35673,
35067,
35525,
35129,
35099,
35139,
35056,
34950,
35087,
34955,
34468,
34478,
34206,
34417,
34118,
34158,
34099,
33918,
33678,
33811,
33707,
33683,
33508,
33335,
32911,
33218,
33162,
33175,
32541,
32566,
32315,
32249,
32265,
32194,
32351,
31616,
32202,
31394,
31882,
31681,
31589,
31385,
31170,
31332,
31712,
31700,
31953,
31927,
31317,
31120,
30794,
30426,
30031,
30317,
29777,
30038,
29681,
29604,
29594,
29163,
29428,
29076,
29141,
29219,
29162,
28866,
28817,
28720,
28493,
28244,
28378,
28498,
28375,
28136,
28053,
27922,
27777,
27364,
27436,
27266,
27087,
27185,
26925,
26714,
26828,
26654,
26638,
26593,
26392,
26241,
26360,
25906,
25936,
25720,
25862,
25831,
25675,
25662,
25677,
25595,
25644,
25486,
25147,
25230,
25089,
25850,
26372,
27749,
29811,
32509,
34940,
35930,
34870,
31680,
29374,
26690,
25036,
24179,
23682,
23781,
23277,
23206,
23041,
22974,
22912,
22813,
22569,
22492,
22639,
22546,
22495,
22066,
22242,
21962,
21689,
21851,
21852,
21879,
21819,
21771,
21647,
21379,
21592,
21424,
21828,
22226,
22753,
23427,
24108,
25300,
27884,
33019,
42661,
59608,
87108,
124722,
168231,
204518,
220795,
208862,
171163,
123854,
81091,
51056,
33413,
25146,
21187,
19952,
19255,
18866,
18684,
18423,
18249,
18021,
18241,
17747,
17838,
17530,
17531,
17434,
17436,
17215,
17398,
17445,
17716,
17969,
18042,
18337,
17902,
17924,
17570,
16819,
16341,
16200,
16176,
16014,
15702,
15450,
15702,
15587,
15480,
15208,
15269,
14895,
15121,
15148,
15084,
15313,
15454,
15639,
16214,
16739,
17382,
17745,
17975,
18100,
18713,
18829,
19186,
19543,
19196,
18730,
18564,
19263,
22047,
28635,
39621,
54883,
72317,
86711,
95601,
94527,
83351,
67630,
50880,
37079,
28328,
23313,
20533,
18873,
18016,
18092,
17507,
16856,
16551,
15250,
14006,
12773,
11867,
11108,
10748,
10725,
10479,
10497,
10359,
10376,
10246,
10249,
10025,
9822,
9926,
9800,
9662,
9650,
9364,
9539,
9416,
9321,
9457,
9220,
9113,
9115,
9132,
9089,
8910,
8883,
8913,
8777,
8722,
8654,
8808,
8560,
8570,
8425,
8448,
8517,
8491,
8597,
8775,
8657,
8508,
8514,
8429,
8065,
8107,
7956,
7857,
7931,
8130,
8764,
9527,
10489,
12047,
13611,
14760,
15187,
14477,
13143,
11751,
10422,
9298,
8519,
8098,
7820,
8097,
8187,
8387,
8786,
8795,
8998,
8771,
8457,
7985,
7696,
7223,
6859,
6387,
6224,
6146,
5922,
5960,
5792,
5742,
5789,
5686,
5731,
5813,
5671,
5819,
5791,
5665,
5649,
5575,
5482,
5401,
5248,
5238,
5051,
4946,
5065,
4923,
4908,
4889,
4854,
4893,
4825,
4867,
4823,
4756,
4646,
4495,
4552,
4743,
4488,
4528,
4366,
4368,
4407,
4337,
4476,
4211,
4226,
4234,
4270,
4175,
4041,
4057,
4098,
3962,
3912,
3989,
3888,
3897,
3982,
3810,
3787,
3699,
3812,
3758,
3846,
3714,
3623,
3573,
3550,
3556,
3533,
3467,
3475,
3304,
3458,
3285,
3324,
3286,
3335,
3267,
3241,
3194,
2950,
3083,
3068,
3005,
3040,
3078,
2965,
2792,
2848,
2861,
2811,
2767,
2673,
2736,
2650,
2680,
2640,
2582,
2560,
2570,
2585,
2493,
2611,
2538,
2598,
2550,
2373,
2416,
2377,
2454,
2386,
2293,
2270,
2266,
2257,
2202,
2207,
2150,
2169,
2108,
2130,
2077,
2116,
2004,
2087,
1977,
1983,
1854,
1968,
1849,
1905,
1871,
1919,
1833,
1872,
1823,
1770,
1809,
1712,
1665,
1706,
1713,
1662,
1620,
1644,
1651,
1609,
1569,
1511,
1564,
1524,
1526,
1518,
1470,
1497,
1417,
1418,
1384,
1368,
1398,
1377,
1333,
1302,
1274,
1267,
1247,
1281,
1246,
1236,
1199,
1250,
1156,
1243,
1091,
1181,
1120,
1039,
1102,
1068,
1103,
1052,
1002,
978,
993,
989,
972,
1015,
975,
991,
1012,
946,
939,
903,
881,
908,
845,
876,
837,
808,
830,
846,
823,
763,
718,
749,
741,
745,
691,
708,
722,
676,
678,
665,
675,
626,
635,
612,
595,
608,
619,
602,
568,
537,
522,
539,
484,
479,
503,
549,
501,
463,
467,
484,
494,
432,
435,
411,
408,
395,
461,
399,
399,
415,
372,
385,
363,
330,
364,
327,
326,
321,
325,
335,
307,
286,
290,
291,
288,
263,
281,
250,
258,
272,
252,
250,
236,
239,
233,
215,
215,
188,
175,
183,
160,
192,
171,
144,
171,
158,
151,
127,
134,
139,
132,
109,
107,
100,
99,
103,
84,
90,
68,
81,
56,
73,
58,
56,
46,
48,
37,
31,
26,
29,
23,
19,
14,
12,
14,
14,
18,
8,
8,
11,
13,
9,
7,
7,
12,
11,
12,
8,
13,
10,
4,
13,
8,
7,
10,
13,
7,
8,
9,
15,
12,
12,
22,
12,
19,
10,
12,
6,
14,
8,
14,
13,
9,
4,
5,
11,
4,
7,
3,
4,
5,
9,
4,
10,
9,
8,
7,
8,
7,
5,
5,
10,
3,
6,
8,
5,
5,
1,
7,
8,
2,
3,
3,
3,
7,
4,
6,
5,
2,
3,
6,
5,
5,
2,
4,
6,
6,
3,
2,
11,
2,
9,
8,
2,
7,
5,
2,
2,
3,
1,
4,
1,
1,
3,
2,
4,
1,
7,
3,
6,
4,
1,
2,
4,
5,
4,
2,
4,
2,
3,
6,
2,
3,
2,
3,
1,
3,
4,
2,
5,
0,
5,
1,
4,
5,
6,
4,
1,
3,
2,
4,
2,
4,
3,
1,
4,
3,
3,
2,
1,
3,
4,
6,
6,
2,
0,
4,
1,
4,
1,
1,
2,
0,
1,
1,
3,
2,
3,
2,
2,
0,
1,
1,
0,
2,
1,
0,
1,
1,
1,
3,
4,
2,
0,
0,
2,
1,
3,
2,
1,
1,
1,
3,
0,
1,
0,
3,
0,
2,
2,
1,
3,
3,
1,
0,
0,
0,
1,
0,
0,
0,
1,
1,
1,
0,
0,
2,
1,
1,
0,
0,
1,
0,
1,
2,
1,
2,
4,
1,
1,
0,
0,
0,
1,
1,
0,
0,
0,
0,
1,
0,
1,
0,
0,
0,
1,
0,
3,
0,
1,
0,
0,
1,
0,
0,
0,
1,
0,
0,
1,
2,
3,
1,
1,
0,
1,
1,
2,
2,
0,
0,
0,
1,
1,
0,
0,
1,
0,
1,
0,
0,
0,
1,
0,
1,
0,
2,
0,
1,
0,
0,
0,
0,
0,
1,
0,
0,
0,
0,
1,
0,
0,
0,
0,
0,
1,
0,
1,
0,
0,
0,
0,
1,
0,
0,
0,
2,
0,
0,
0,
0,
0,
0,
1,
0,
1,
0,
0,
0,
0,
0,
0,
0,
0,
0,
1,
0,
0,
0,
0,
0,
0,
0,
0,
0,
0,
0,
0,
0,
0,
0,
0,
0,
0,
0,
0,
1,
0,
0,
0,
0,
1,
0,
0,
0,
0,
0,
0,
0,
0,
0,
0,
0,
0,
0,
0,
0,
0,
0,
0,
0,
0,
0,
0,
0,
0,
0,
0,
0,
0,
1,
0,
0,
1,
0,
0,
0,
0,
0,
0,
0,
0,
0,
0,
0,
1,
0,
0,
0,
0,
0,
0,
0,
0,
0,
0,
0,
0,
0,
0,
0,
0,
0,
0,
1,
0,
0,
0,
0,
0,
0,
0,
0,
0,
0,
0,
0,
0,
0,
0,
0,
0,
0,
0,
0,
0,
0,
0,
0,
0,
0,
0,
0,
0,
0,
0,
0,
0,
0,
0,
0,
0,
0,
0,
0,
0,
0,
0,
0,
0,
0,
0,
0,
0,
0,
0,
0,
0,
0,
0,
0,
0,
0,
0,
0,
0,
0,
0,
0,
0,
0,
0,
0,
0,
0,
0,
0,
0,
0,
0,
0,
0,
0,
0,
0,
0,
0,
0,
0,
0,
0,
0,
0,
0,
0,
0,
0,
0,
0,
0,
0,
0,
0,
0,
0,
0,
0,
0,
0,
0,
0,
0,
0,
#ENDOFDATA   :