File: weave/spectra/BN std.msa
#FORMAT      : EMSA/MAS Spectral Data File
#VERSION     : 1.0
#TITLE       : BN std
#DATE        : 15-MAY-2018
#TIME        : 09:14
#OWNER       : Unknown
#NPOINTS     : 4096
#NCOLUMNS    : 1
#XUNITS      : eV
#YUNITS      : counts
#DATATYPE    : Y
#XPERCHAN    : 9.99856
#OFFSET      : 1.63032
#BEAMKV      : 25
#SIGNALTYPE  : EDS
#ELEVANGLE   : 35
#AZIMANGLE   : 0
#LIVETIME    : 1194.99
#REALTIME    : 1241.73
#PROBECUR    : 0.95197
#TDEADLYR    : 0
#TACTLYR     : 0.045
#TALWIND     : 0.003
#CHOFFSET    : 0.0
#XLABEL      : Energy (eV)
#YLABEL      : Counts
#EDSDET      : SDUTW
##SPECIMEN   : BN std
##D2STDCMP   : BN,(B:43.5617),(N:56.4384),5.0
##DET_HASH   : 97086dfe-e5c2-9c77-3984-1d0b14bbbf41
##CALIB_HASH : 1a36e884-c26d-3547-51b1-d0bb2efdf95a
##WORKING    : 16.99 mm
##SAMPLE     : <BulkSample id="1">\n<mOrientation id="2">\n<double>0.0</double>\n<double>0.0</double>\n<double>-1.0</double>\n</mOrientation>\n</BulkSample>
#SPECTRUM    :
19,
17,
6,
4,
107,
1521,
4102,
3260,
6942,
13539,
9852,
31228,
132570,
180111,
64722,
8532,
4783,
8280,
6788,
3069,
2486,
2940,
3380,
3991,
3975,
4438,
4835,
5318,
5858,
6438,
6925,
7501,
7959,
8626,
9191,
9844,
10350,
10952,
11250,
12043,
12672,
12886,
13501,
14016,
14249,
14513,
14898,
15312,
15845,
16104,
16424,
15817,
15500,
15621,
15307,
15542,
16114,
16707,
17338,
17105,
16559,
15706,
15422,
14976,
14949,
14945,
14457,
14732,
14729,
14624,
14859,
14448,
14326,
14332,
14241,
14164,
13935,
14154,
13676,
13773,
13570,
13333,
13199,
13045,
13075,
12767,
12852,
12605,
12505,
12287,
12173,
11926,
11826,
11680,
11601,
11334,
11199,
11261,
11095,
10911,
10840,
10673,
10515,
10441,
10482,
10404,
10160,
10028,
10016,
9652,
9686,
9735,
9310,
9353,
9214,
9267,
9074,
8957,
8973,
8873,
8525,
8652,
8845,
8674,
8497,
8385,
8155,
7923,
7909,
7898,
7772,
7785,
7614,
7489,
7416,
7507,
7194,
7332,
7089,
7081,
7138,
6880,
6869,
6786,
6536,
6650,
6603,
6468,
6311,
6348,
6206,
6333,
6288,
5989,
6069,
6075,
6058,
5957,
5864,
5648,
5655,
5779,
5451,
5565,
5454,
5418,
5340,
5381,
5225,
5192,
5155,
5056,
5104,
4982,
4916,
4932,
4985,
4993,
4894,
4965,
5024,
5085,
4927,
4679,
4473,
4454,
4468,
4452,
4376,
4392,
4384,
4324,
4267,
4237,
4194,
4073,
4198,
4079,
4111,
4243,
3998,
3966,
3767,
3977,
3823,
3793,
3696,
3743,
3797,
3647,
3781,
3963,
4091,
4175,
4228,
3969,
3675,
3517,
3519,
3472,
3371,
3316,
3300,
3261,
3364,
3293,
3239,
3151,
3205,
3250,
3110,
3053,
2999,
3128,
3139,
2974,
3056,
3063,
2926,
2880,
2814,
2774,
2802,
2620,
2854,
2767,
2874,
2805,
2842,
2764,
2782,
2739,
2670,
2710,
2693,
2579,
2513,
2482,
2521,
2509,
2552,
2469,
2438,
2435,
2434,
2433,
2338,
2376,
2406,
2315,
2353,
2311,
2345,
2367,
2237,
2227,
2238,
2221,
2267,
2132,
2201,
2137,
2130,
2067,
2090,
2132,
2024,
2052,
2033,
1994,
2021,
2041,
1995,
1898,
2025,
1943,
1973,
1969,
1897,
1845,
1874,
1866,
1872,
1847,
1841,
1824,
1779,
1677,
1796,
1785,
1718,
1731,
1734,
1684,
1698,
1672,
1680,
1648,
1692,
1587,
1620,
1667,
1696,
1580,
1575,
1552,
1447,
1623,
1492,
1501,
1548,
1539,
1465,
1528,
1474,
1440,
1419,
1439,
1426,
1455,
1460,
1459,
1375,
1353,
1380,
1386,
1355,
1373,
1382,
1356,
1403,
1440,
1376,
1330,
1295,
1303,
1216,
1284,
1258,
1280,
1238,
1222,
1186,
1195,
1204,
1186,
1134,
1169,
1129,
1155,
1105,
1045,
1085,
1086,
1093,
1119,
1118,
1073,
1030,
960,
1062,
1077,
1059,
1048,
1058,
962,
1030,
993,
1009,
917,
948,
966,
869,
916,
936,
954,
939,
925,
953,
890,
850,
930,
944,
854,
824,
843,
855,
855,
798,
850,
833,
805,
759,
863,
766,
839,
798,
840,
814,
809,
838,
747,
740,
800,
783,
712,
704,
733,
708,
701,
740,
703,
684,
701,
642,
680,
626,
630,
725,
703,
631,
659,
595,
605,
628,
614,
643,
594,
591,
572,
602,
570,
610,
589,
546,
558,
600,
573,
559,
544,
554,
524,
502,
541,
508,
505,
438,
520,
541,
460,
495,
447,
472,
499,
477,
448,
455,
445,
490,
491,
434,
448,
464,
412,
412,
458,
393,
451,
402,
396,
420,
423,
463,
394,
368,
406,
373,
347,
371,
355,
358,
359,
340,
370,
359,
332,
358,
351,
349,
317,
322,
325,
321,
302,
316,
284,
307,
303,
320,
299,
276,
305,
297,
286,
284,
285,
279,
271,
269,
296,
263,
290,
271,
278,
280,
232,
261,
255,
243,
255,
214,
232,
218,
229,
217,
246,
207,
214,
209,
221,
211,
234,
241,
195,
208,
215,
223,
255,
193,
196,
184,
174,
177,
190,
175,
202,
199,
180,
186,
179,
184,
162,
154,
184,
154,
180,
148,
174,
160,
182,
151,
168,
144,
150,
142,
131,
147,
133,
144,
121,
157,
135,
124,
114,
122,
146,
126,
128,
118,
121,
135,
117,
126,
121,
125,
132,
122,
98,
106,
113,
124,
106,
102,
107,
89,
118,
82,
87,
88,
101,
96,
76,
82,
98,
88,
96,
65,
89,
84,
77,
85,
78,
90,
83,
72,
84,
80,
92,
97,
87,
83,
71,
80,
74,
57,
71,
62,
89,
58,
53,
72,
66,
68,
59,
75,
55,
64,
55,
56,
64,
60,
51,
54,
57,
62,
46,
43,
67,
56,
46,
53,
45,
48,
46,
50,
30,
39,
42,
48,
43,
42,
43,
35,
37,
36,
38,
41,
28,
37,
30,
45,
28,
35,
39,
41,
41,
32,
28,
27,
30,
29,
22,
33,
28,
26,
22,
16,
30,
24,
25,
17,
20,
22,
26,
26,
27,
23,
25,
23,
28,
14,
24,
16,
18,
17,
22,
14,
18,
20,
22,
18,
16,
22,
16,
18,
19,
8,
18,
13,
9,
12,
9,
15,
11,
9,
10,
15,
9,
9,
13,
14,
10,
9,
11,
11,
12,
10,
6,
16,
10,
5,
4,
9,
15,
4,
9,
12,
7,
11,
4,
3,
5,
3,
5,
10,
4,
4,
5,
3,
9,
4,
5,
4,
11,
3,
8,
4,
2,
2,
8,
4,
3,
4,
1,
8,
1,
7,
5,
3,
2,
0,
2,
2,
1,
0,
5,
0,
2,
2,
1,
0,
1,
1,
0,
1,
1,
1,
1,
0,
0,
0,
0,
0,
0,
0,
0,
0,
0,
0,
0,
0,
0,
0,
0,
0,
0,
0,
0,
0,
0,
0,
0,
0,
0,
0,
0,
0,
0,
0,
0,
0,
0,
0,
0,
0,
0,
0,
0,
0,
0,
0,
0,
0,
0,
0,
0,
0,
0,
0,
0,
0,
0,
0,
0,
0,
0,
0,
0,
0,
0,
0,
0,
0,
0,
0,
0,
0,
0,
1,
0,
0,
0,
0,
0,
0,
0,
0,
0,
0,
0,
0,
0,
0,
0,
0,
0,
0,
0,
0,
0,
0,
0,
0,
0,
0,
0,
1,
0,
0,
0,
0,
0,
0,
0,
0,
0,
0,
0,
0,
0,
0,
0,
0,
0,
0,
0,
0,
0,
0,
0,
0,
0,
0,
0,
0,
0,
0,
0,
0,
0,
0,
0,
0,
0,
0,
0,
0,
0,
0,
0,
0,
0,
0,
0,
0,
0,
0,
0,
0,
0,
0,
0,
0,
0,
0,
0,
0,
0,
0,
0,
0,
0,
0,
0,
0,
0,
0,
0,
0,
0,
0,
0,
0,
0,
0,
0,
0,
0,
0,
0,
0,
0,
0,
0,
0,
0,
0,
0,
0,
0,
0,
0,
0,
0,
0,
0,
0,
0,
0,
0,
0,
0,
0,
0,
0,
0,
0,
0,
0,
0,
0,
0,
0,
0,
0,
0,
0,
0,
0,
0,
0,
0,
0,
0,
0,
0,
0,
0,
0,
0,
0,
0,
0,
0,
0,
0,
0,
0,
0,
0,
0,
0,
0,
0,
0,
0,
0,
0,
0,
0,
0,
0,
0,
0,
0,
0,
0,
0,
0,
0,
0,
0,
0,
0,
0,
0,
0,
0,
0,
0,
0,
0,
0,
0,
0,
0,
0,
0,
0,
0,
0,
0,
0,
0,
0,
0,
0,
0,
0,
1,
0,
0,
0,
0,
0,
0,
0,
0,
0,
0,
0,
0,
0,
0,
0,
0,
0,
0,
0,
0,
0,
0,
0,
0,
0,
0,
0,
0,
0,
0,
0,
0,
0,
0,
0,
0,
0,
0,
0,
0,
0,
0,
0,
0,
0,
0,
0,
0,
0,
0,
0,
0,
0,
0,
0,
0,
0,
0,
0,
0,
0,
0,
0,
0,
0,
0,
0,
0,
0,
0,
0,
0,
0,
0,
0,
0,
0,
0,
0,
0,
0,
0,
0,
0,
0,
0,
0,
0,
0,
0,
0,
0,
0,
0,
0,
0,
0,
0,
0,
0,
0,
0,
0,
0,
0,
0,
0,
0,
0,
0,
0,
0,
0,
0,
0,
0,
0,
0,
0,
0,
0,
0,
0,
0,
0,
0,
0,
0,
0,
0,
0,
0,
0,
0,
0,
0,
0,
0,
0,
0,
0,
0,
0,
0,
0,
0,
0,
0,
0,
0,
0,
0,
0,
0,
0,
0,
0,
0,
0,
0,
0,
0,
0,
0,
0,
0,
0,
0,
0,
0,
0,
0,
0,
0,
0,
0,
0,
0,
0,
0,
0,
0,
0,
0,
0,
0,
0,
0,
0,
0,
0,
0,
0,
0,
0,
0,
0,
0,
0,
0,
0,
0,
0,
0,
0,
0,
0,
0,
0,
0,
0,
0,
0,
0,
0,
0,
0,
0,
0,
0,
0,
0,
0,
0,
0,
0,
0,
0,
0,
0,
0,
0,
0,
0,
0,
0,
0,
0,
0,
0,
0,
0,
0,
0,
0,
0,
0,
0,
0,
0,
0,
0,
0,
0,
0,
0,
#ENDOFDATA   :