File: weave/spectra/C std.msa
#FORMAT      : EMSA/MAS Spectral Data File
#VERSION     : 1.0
#TITLE       : C std
#DATE        : 15-MAY-2018
#TIME        : 09:08
#OWNER       : Unknown
#NPOINTS     : 4096
#NCOLUMNS    : 1
#XUNITS      : eV
#YUNITS      : counts
#DATATYPE    : Y
#XPERCHAN    : 9.99856
#OFFSET      : 1.63032
#BEAMKV      : 25
#SIGNALTYPE  : EDS
#ELEVANGLE   : 35
#AZIMANGLE   : 0
#LIVETIME    : 1199.39
#REALTIME    : 1300
#PROBECUR    : 0.95221
#TDEADLYR    : 0
#TACTLYR     : 0.045
#TALWIND     : 0.003
#CHOFFSET    : 0.0
#XLABEL      : Energy (eV)
#YLABEL      : Counts
#EDSDET      : SDUTW
##SPECIMEN   : C std
##D2STDCMP   : C,(C:100.0),1.9
##DET_HASH   : 97086dfe-e5c2-9c77-3984-1d0b14bbbf41
##CALIB_HASH : 1a36e884-c26d-3547-51b1-d0bb2efdf95a
##WORKING    : 16.99 mm
##SAMPLE     : <BulkSample id="1">\n<mOrientation id="2">\n<double>0.0</double>\n<double>0.0</double>\n<double>-1.0</double>\n</mOrientation>\n</BulkSample>
#SPECTRUM    :
18,
21,
7,
10,
49,
458,
5467,
101381,
778912,
1437627,
583577,
63239,
9177,
6690,
6293,
6876,
9534,
14664,
12784,
5908,
3142,
3542,
4394,
4810,
4668,
4964,
5443,
5893,
6640,
6967,
7616,
8216,
8984,
9821,
10707,
11440,
11816,
12252,
12635,
13276,
13963,
14535,
14891,
15277,
15488,
16094,
16210,
16715,
17296,
17877,
18050,
17431,
16647,
16650,
17114,
18317,
20695,
21648,
21094,
19628,
17923,
16964,
16274,
15643,
15461,
15487,
15515,
15310,
15336,
15084,
15119,
14821,
14852,
14722,
14683,
14569,
14454,
14739,
14610,
13821,
13984,
13618,
13496,
13361,
13497,
13033,
12707,
12772,
12578,
12563,
12479,
12025,
11975,
12039,
11460,
11591,
11485,
11469,
11247,
11107,
10807,
11125,
10713,
10621,
10366,
10248,
10317,
10173,
9873,
9697,
9870,
9860,
9468,
9474,
9285,
9118,
9173,
8931,
9055,
8825,
8813,
8634,
8540,
8437,
8492,
8296,
8054,
7925,
7884,
7838,
7835,
7783,
7675,
7499,
7434,
7420,
7314,
7251,
7332,
7049,
6985,
6917,
6976,
6716,
6601,
6541,
6593,
6610,
6465,
6336,
6278,
6296,
6253,
6182,
6103,
5984,
5996,
5926,
6013,
5753,
5756,
5557,
5575,
5500,
5492,
5515,
5416,
5340,
5282,
5229,
5133,
4972,
5167,
5005,
4994,
5063,
4874,
4964,
5008,
4926,
4972,
4933,
4813,
4711,
4698,
4495,
4489,
4436,
4407,
4434,
4418,
4323,
4300,
4158,
4266,
4228,
4235,
4187,
4050,
4081,
3965,
3976,
3993,
3830,
3935,
3796,
3805,
3743,
3746,
3837,
3855,
4068,
4287,
4480,
4316,
4213,
3818,
3561,
3406,
3438,
3362,
3522,
3214,
3310,
3292,
3205,
3231,
3201,
3189,
3191,
3173,
3108,
3089,
3128,
3137,
3153,
3179,
3003,
2971,
2965,
3059,
2950,
2838,
2801,
2747,
2787,
2741,
2774,
2878,
2767,
2721,
2651,
2696,
2655,
2639,
2594,
2507,
2598,
2562,
2633,
2499,
2394,
2374,
2459,
2383,
2401,
2516,
2325,
2372,
2350,
2252,
2288,
2298,
2257,
2300,
2319,
2231,
2267,
2220,
2187,
2177,
2158,
2117,
2157,
2062,
2066,
2042,
1940,
2054,
2038,
2120,
1983,
1991,
1978,
1939,
1956,
1962,
1860,
1982,
1899,
1807,
1857,
1842,
1774,
1718,
1794,
1875,
1854,
1840,
1785,
1750,
1795,
1779,
1715,
1647,
1733,
1664,
1711,
1743,
1710,
1727,
1597,
1665,
1621,
1601,
1550,
1591,
1574,
1544,
1531,
1562,
1478,
1506,
1477,
1508,
1509,
1475,
1431,
1427,
1466,
1404,
1450,
1413,
1460,
1374,
1353,
1284,
1413,
1376,
1367,
1407,
1409,
1332,
1393,
1336,
1226,
1305,
1241,
1274,
1218,
1236,
1259,
1204,
1201,
1232,
1147,
1156,
1122,
1207,
1086,
1138,
1149,
1083,
1104,
1119,
1103,
1059,
1049,
1072,
1040,
1038,
999,
1021,
995,
1022,
1012,
955,
983,
990,
1003,
935,
943,
970,
955,
976,
916,
936,
984,
913,
902,
886,
885,
874,
881,
927,
843,
820,
820,
822,
821,
828,
813,
856,
847,
810,
834,
838,
819,
812,
800,
863,
783,
812,
798,
753,
718,
732,
741,
722,
697,
722,
690,
700,
691,
682,
666,
641,
656,
692,
666,
645,
658,
750,
797,
832,
871,
855,
798,
765,
716,
646,
616,
564,
586,
591,
571,
532,
522,
507,
500,
542,
519,
501,
496,
545,
546,
516,
473,
492,
483,
497,
487,
458,
472,
451,
469,
445,
473,
497,
457,
411,
447,
409,
478,
441,
395,
414,
478,
394,
410,
405,
412,
389,
432,
395,
382,
401,
410,
405,
372,
400,
361,
388,
350,
358,
336,
355,
352,
346,
351,
355,
340,
349,
342,
316,
315,
330,
300,
331,
310,
312,
297,
343,
291,
311,
320,
310,
307,
279,
266,
281,
263,
292,
240,
230,
248,
269,
246,
288,
262,
233,
264,
238,
241,
252,
237,
256,
238,
244,
215,
232,
207,
213,
191,
195,
190,
214,
193,
220,
190,
193,
178,
191,
210,
205,
186,
177,
165,
172,
169,
173,
172,
179,
184,
180,
135,
144,
176,
159,
178,
149,
166,
161,
173,
161,
154,
135,
144,
157,
131,
156,
133,
155,
139,
139,
148,
122,
130,
122,
111,
127,
105,
121,
139,
142,
96,
120,
121,
123,
124,
124,
111,
115,
99,
83,
86,
100,
109,
92,
84,
94,
98,
104,
80,
82,
99,
100,
102,
87,
82,
80,
87,
74,
77,
80,
78,
76,
80,
79,
82,
64,
75,
67,
82,
80,
75,
81,
89,
51,
72,
63,
57,
63,
67,
62,
50,
65,
63,
60,
62,
45,
60,
61,
56,
46,
57,
61,
55,
67,
61,
50,
58,
62,
53,
47,
44,
49,
50,
44,
46,
51,
28,
42,
46,
45,
32,
41,
33,
40,
46,
27,
39,
44,
44,
34,
28,
40,
23,
34,
34,
38,
42,
30,
35,
30,
29,
25,
37,
25,
30,
27,
34,
26,
35,
21,
26,
22,
26,
21,
27,
21,
22,
24,
19,
29,
18,
24,
24,
25,
26,
17,
21,
14,
30,
16,
21,
21,
14,
16,
11,
19,
17,
19,
17,
26,
14,
16,
11,
12,
11,
10,
15,
15,
7,
15,
8,
11,
12,
10,
6,
8,
10,
10,
12,
10,
5,
6,
8,
6,
10,
13,
8,
9,
4,
10,
8,
8,
3,
7,
9,
7,
4,
9,
9,
3,
9,
5,
5,
9,
7,
5,
6,
6,
8,
4,
3,
1,
5,
4,
3,
8,
4,
7,
5,
2,
3,
3,
1,
0,
3,
2,
4,
0,
3,
1,
3,
4,
1,
0,
1,
0,
1,
0,
0,
0,
1,
0,
0,
0,
0,
0,
2,
0,
0,
0,
0,
0,
0,
0,
0,
0,
0,
0,
0,
0,
0,
0,
0,
0,
0,
0,
1,
0,
0,
0,
0,
0,
0,
0,
0,
0,
0,
0,
0,
0,
0,
0,
0,
1,
0,
0,
0,
0,
0,
0,
0,
0,
0,
0,
0,
0,
0,
0,
0,
0,
0,
0,
0,
0,
0,
0,
0,
0,
0,
0,
0,
0,
0,
0,
0,
0,
0,
0,
0,
0,
0,
0,
0,
0,
0,
0,
0,
0,
0,
0,
0,
0,
0,
0,
0,
0,
0,
0,
0,
0,
0,
0,
0,
0,
0,
0,
0,
0,
0,
0,
0,
0,
0,
0,
0,
0,
0,
0,
0,
0,
0,
0,
0,
0,
0,
0,
0,
0,
0,
0,
0,
0,
0,
0,
0,
0,
0,
0,
0,
0,
0,
0,
0,
0,
0,
0,
0,
0,
0,
0,
0,
0,
0,
0,
0,
0,
0,
0,
0,
0,
0,
0,
0,
0,
0,
0,
0,
0,
0,
0,
0,
0,
0,
0,
0,
0,
0,
0,
0,
0,
0,
0,
0,
0,
0,
0,
0,
0,
0,
0,
0,
0,
0,
0,
0,
0,
0,
0,
0,
0,
0,
0,
0,
0,
0,
0,
0,
0,
0,
0,
0,
0,
0,
0,
0,
0,
0,
0,
0,
0,
0,
0,
0,
0,
0,
0,
0,
0,
0,
1,
0,
0,
0,
0,
0,
0,
0,
0,
0,
0,
0,
0,
0,
0,
0,
0,
0,
0,
0,
0,
0,
0,
0,
0,
0,
0,
0,
0,
0,
0,
0,
0,
0,
0,
0,
0,
0,
0,
0,
0,
0,
0,
0,
0,
0,
0,
0,
0,
0,
0,
0,
0,
0,
0,
0,
0,
0,
0,
0,
0,
0,
0,
0,
0,
0,
0,
0,
0,
1,
0,
0,
0,
0,
0,
0,
0,
0,
0,
0,
0,
0,
0,
0,
0,
0,
0,
0,
0,
0,
0,
0,
0,
0,
0,
0,
0,
0,
0,
0,
0,
0,
0,
0,
0,
0,
0,
0,
0,
0,
0,
0,
0,
0,
0,
0,
0,
0,
0,
0,
0,
0,
0,
0,
0,
0,
0,
0,
0,
0,
0,
0,
0,
0,
0,
0,
0,
0,
0,
0,
0,
0,
0,
0,
0,
0,
0,
0,
0,
0,
0,
0,
0,
0,
0,
0,
0,
0,
0,
0,
0,
0,
0,
0,
0,
0,
0,
0,
0,
0,
0,
0,
0,
0,
0,
0,
0,
0,
0,
0,
0,
0,
0,
0,
0,
0,
0,
0,
0,
0,
0,
0,
0,
0,
0,
0,
0,
0,
0,
0,
0,
0,
0,
0,
0,
0,
0,
0,
0,
0,
0,
0,
0,
0,
0,
0,
0,
0,
0,
0,
0,
0,
0,
0,
0,
0,
0,
0,
0,
0,
0,
0,
0,
0,
0,
0,
0,
0,
0,
0,
0,
0,
0,
0,
0,
0,
0,
0,
0,
0,
0,
0,
0,
0,
0,
0,
0,
0,
0,
0,
0,
0,
0,
0,
0,
0,
0,
0,
0,
0,
0,
0,
0,
0,
0,
0,
0,
0,
0,
0,
0,
0,
0,
0,
0,
0,
0,
0,
0,
0,
0,
0,
0,
0,
0,
0,
0,
0,
0,
0,
0,
0,
0,
0,
0,
0,
0,
0,
0,
0,
0,
0,
#ENDOFDATA   :