File: weave/XRF Stainless/Cr_50kv_50_ma_Rh_vac_D1.msa
#FORMAT      : EMSA/MAS SPECTRAL DATA FILE
#VERSION     : 1.0
#TITLE       : Bruker AXS spectrum Cr_50kv_50_ma_Rh_vac_D1.txt
#DATE        : 19-NOV-2019
#TIME        : 11:42
#OWNER       : Bruker AXS
#NPOINTS     : 4096.0
#NCOLUMNS    : 4.0
#XUNITS      : keV
#YUNITS      : Counts
#DATATYPE    : Y
#XPERCHAN    : 0.0099990
#OFFSET      : -0.9553045
#SIGNALTYPE  : EDS
#CHOFFSET    : 96
#LIVETIME  -s: 119.994
#REALTIME  -s: 131.733
##RTDET      : XFlash 430
#EDSDET      :
#TDEADLYR -cm: 0.000003
#TACTLYR  -cm: 0.045
##FANO       : 0.1135598
##MNFWHM -keV: 0.1438759
##IDENT      : Rh
#SPECTRUM    :
         0.0,         0.0,         0.0,         0.0,
         0.0,         0.0,         0.0,         0.0,
         0.0,         0.0,         0.0,         0.0,
         0.0,         0.0,         0.0,         0.0,
         0.0,         0.0,         0.0,         0.0,
         0.0,         0.0,         0.0,         0.0,
         0.0,         0.0,         0.0,         0.0,
         0.0,         0.0,         0.0,         0.0,
         0.0,         0.0,         0.0,         0.0,
         6.0,         5.0,         8.0,         5.0,
         7.0,        15.0,        25.0,        83.0,
      9428.0,     18961.0,     34029.0,     55123.0,
    147353.0,    133722.0,    110005.0,     82512.0,
      4660.0,      1962.0,       760.0,       272.0,
         0.0,         1.0,         0.0,         0.0,
         0.0,         1.0,         0.0,         1.0,
        -1.0,         0.0,         0.0,         9.0,
        24.0,        26.0,        29.0,        22.0,
        19.0,        33.0,        18.0,        29.0,
        22.0,        19.0,        21.0,        23.0,
        24.0,        22.0,        12.0,        23.0,
        19.0,        25.0,        24.0,        21.0,
        26.0,        21.0,        22.0,        15.0,
        15.0,        15.0,        25.0,        17.0,
        13.0,        18.0,        25.0,        17.0,
        19.0,        18.0,        20.0,        20.0,
        26.0,        27.0,        26.0,        22.0,
        20.0,        19.0,        20.0,        21.0,
        31.0,        23.0,        25.0,        23.0,
        25.0,        19.0,        25.0,        27.0,
        27.0,        27.0,        30.0,        37.0,
        32.0,        28.0,        34.0,        35.0,
        18.0,        14.0,        16.0,        16.0,
        46.0,        46.0,        49.0,        57.0,
        56.0,        58.0,        52.0,        54.0,
        49.0,        47.0,        36.0,        40.0,
        43.0,        45.0,        53.0,        49.0,
        56.0,        54.0,        56.0,        56.0,
        51.0,        54.0,        54.0,        61.0,
        45.0,        42.0,        44.0,        54.0,
        67.0,        69.0,        79.0,        78.0,
        62.0,        76.0,        65.0,        53.0,
        63.0,        62.0,        52.0,        53.0,
        46.0,        56.0,        51.0,        50.0,
        54.0,        52.0,        63.0,        61.0,
        75.0,        81.0,        88.0,        91.0,
        96.0,        85.0,        82.0,        93.0,
        79.0,        94.0,       100.0,        81.0,
        74.0,        69.0,        87.0,        74.0,
        69.0,        67.0,        75.0,        78.0,
        67.0,        83.0,        69.0,        65.0,
        57.0,        69.0,        55.0,        59.0,
        88.0,        94.0,       109.0,       143.0,
       318.0,       380.0,       434.0,       498.0,
       765.0,       783.0,       785.0,       816.0,
       631.0,       581.0,       573.0,       532.0,
       359.0,       357.0,       365.0,       344.0,
       206.0,       223.0,       190.0,       169.0,
       195.0,       180.0,       183.0,       183.0,
       117.0,       125.0,       110.0,        90.0,
        88.0,        84.0,        82.0,        93.0,
        73.0,        90.0,        85.0,        75.0,
        85.0,        99.0,       105.0,       108.0,
       107.0,       111.0,       113.0,       112.0,
       115.0,        98.0,       102.0,       112.0,
       121.0,       103.0,       103.0,       102.0,
       135.0,       138.0,       135.0,       145.0,
       134.0,       152.0,       152.0,       135.0,
       184.0,       189.0,       200.0,       211.0,
       192.0,       197.0,       212.0,       198.0,
       241.0,       234.0,       244.0,       253.0,
       216.0,       204.0,       203.0,       227.0,
       172.0,       170.0,       184.0,       167.0,
       176.0,       167.0,       167.0,       163.0,
       200.0,       189.0,       192.0,       222.0,
       312.0,       308.0,       328.0,       348.0,
       531.0,       636.0,       658.0,       695.0,
      1732.0,      2355.0,      3191.0,      4534.0,
     30022.0,     41919.0,     57285.0,     76671.0,
    217166.0,    246264.0,    271583.0,    289991.0,
    265078.0,    238651.0,    208290.0,    177420.0,
     52317.0,     37874.0,     26539.0,     18276.0,
      2422.0,      1696.0,      1326.0,      1162.0,
      1057.0,      1170.0,      1230.0,      1373.0,
      2460.0,      2901.0,      3449.0,      4295.0,
     13219.0,     16163.0,     19576.0,     23406.0,
     40381.0,     42183.0,     42523.0,     41758.0,
     26733.0,     22649.0,     18615.0,     15045.0,
      3541.0,      2480.0,      1655.0,      1090.0,
       134.0,        83.0,        52.0,        38.0,
        25.0,        21.0,        20.0,        30.0,
        20.0,        25.0,        34.0,        36.0,
        42.0,        44.0,        42.0,        40.0,
        31.0,        31.0,        35.0,        44.0,
        50.0,        53.0,        53.0,        56.0,
        85.0,        90.0,        91.0,        94.0,
        95.0,       113.0,       129.0,       127.0,
       132.0,       119.0,       134.0,       135.0,
       123.0,       131.0,       127.0,       136.0,
       115.0,       102.0,        97.0,       106.0,
        80.0,        86.0,        82.0,        72.0,
        52.0,        56.0,        47.0,        45.0,
        36.0,        29.0,        29.0,        32.0,
        23.0,        26.0,        28.0,        26.0,
        25.0,        27.0,        27.0,        24.0,
        33.0,        32.0,        36.0,        34.0,
        29.0,        37.0,        32.0,        32.0,
        35.0,        33.0,        33.0,        31.0,
        26.0,        31.0,        30.0,        31.0,
        22.0,        25.0,        28.0,        30.0,
        22.0,        25.0,        27.0,        23.0,
        19.0,        14.0,        18.0,        18.0,
        18.0,        19.0,        21.0,        19.0,
        18.0,        19.0,        19.0,        19.0,
        18.0,        22.0,        24.0,        20.0,
        18.0,        22.0,        26.0,        22.0,
        29.0,        25.0,        20.0,        16.0,
        17.0,        22.0,        27.0,        30.0,
        31.0,        32.0,        28.0,        28.0,
        39.0,        47.0,        47.0,        57.0,
        72.0,        86.0,        86.0,        90.0,
       124.0,       122.0,       129.0,       127.0,
       148.0,       157.0,       167.0,       167.0,
       188.0,       180.0,       181.0,       167.0,
       185.0,       182.0,       177.0,       177.0,
       151.0,       149.0,       147.0,       142.0,
       126.0,       128.0,       122.0,       109.0,
        87.0,        89.0,        92.0,        93.0,
        76.0,        79.0,        72.0,        65.0,
        48.0,        58.0,        50.0,        48.0,
        35.0,        32.0,        34.0,        36.0,
        29.0,        27.0,        31.0,        35.0,
        36.0,        37.0,        38.0,        37.0,
        34.0,        29.0,        30.0,        26.0,
        36.0,        45.0,        41.0,        36.0,
        48.0,        45.0,        43.0,        46.0,
        57.0,        58.0,        52.0,        57.0,
        51.0,        51.0,        55.0,        53.0,
        66.0,        66.0,        75.0,        74.0,
        76.0,        66.0,        72.0,        83.0,
        67.0,        62.0,        67.0,        75.0,
        73.0,        73.0,        62.0,        69.0,
        62.0,        56.0,        47.0,        58.0,
        59.0,        57.0,        54.0,        58.0,
        48.0,        48.0,        49.0,        53.0,
        38.0,        44.0,        59.0,        57.0,
        64.0,        64.0,        66.0,        61.0,
        40.0,        36.0,        37.0,        40.0,
        48.0,        52.0,        48.0,        48.0,
        49.0,        45.0,        45.0,        44.0,
        38.0,        45.0,        54.0,        45.0,
        48.0,        40.0,        53.0,        48.0,
        44.0,        49.0,        48.0,        45.0,
        54.0,        55.0,        57.0,        57.0,
        56.0,        56.0,        57.0,        56.0,
        52.0,        50.0,        53.0,        56.0,
        65.0,        67.0,        71.0,        73.0,
        70.0,        73.0,        85.0,        80.0,
        83.0,        78.0,        76.0,        91.0,
        89.0,        84.0,        82.0,        87.0,
        76.0,        80.0,        87.0,        90.0,
        96.0,        93.0,        86.0,        82.0,
        87.0,        86.0,        83.0,        84.0,
        84.0,        85.0,        80.0,        69.0,
        66.0,        61.0,        69.0,        77.0,
        77.0,        78.0,        72.0,        66.0,
        72.0,        68.0,        63.0,        63.0,
        62.0,        60.0,        54.0,        63.0,
        53.0,        49.0,        41.0,        45.0,
        48.0,        55.0,        49.0,        41.0,
        49.0,        44.0,        43.0,        39.0,
        41.0,        36.0,        44.0,        45.0,
        44.0,        45.0,        42.0,        42.0,
        39.0,        48.0,        46.0,        43.0,
        38.0,        41.0,        38.0,        38.0,
        46.0,        46.0,        46.0,        44.0,
        49.0,        52.0,        55.0,        51.0,
        51.0,        44.0,        39.0,        47.0,
        46.0,        47.0,        41.0,        41.0,
        41.0,        47.0,        54.0,        51.0,
        41.0,        40.0,        37.0,        41.0,
        41.0,        41.0,        35.0,        43.0,
        41.0,        37.0,        30.0,        38.0,
        34.0,        39.0,        38.0,        31.0,
        37.0,        41.0,        33.0,        35.0,
        39.0,        40.0,        31.0,        33.0,
        31.0,        30.0,        33.0,        25.0,
        33.0,        37.0,        47.0,        40.0,
        31.0,        37.0,        36.0,        30.0,
        37.0,        35.0,        32.0,        37.0,
        33.0,        35.0,        35.0,        32.0,
        36.0,        33.0,        39.0,        34.0,
        28.0,        30.0,        38.0,        36.0,
        37.0,        30.0,        36.0,        44.0,
        42.0,        32.0,        32.0,        32.0,
        38.0,        38.0,        37.0,        35.0,
        36.0,        40.0,        44.0,        40.0,
        37.0,        32.0,        37.0,        38.0,
        34.0,        35.0,        36.0,        29.0,
        33.0,        34.0,        29.0,        33.0,
        29.0,        29.0,        30.0,        30.0,
        30.0,        25.0,        33.0,        27.0,
        30.0,        28.0,        30.0,        32.0,
        24.0,        24.0,        28.0,        23.0,
        28.0,        32.0,        30.0,        28.0,
        26.0,        28.0,        31.0,        33.0,
        30.0,        33.0,        29.0,        33.0,
        27.0,        29.0,        38.0,        39.0,
        40.0,        31.0,        26.0,        32.0,
        35.0,        28.0,        28.0,        27.0,
        30.0,        28.0,        30.0,        40.0,
        40.0,        37.0,        41.0,        39.0,
        47.0,        36.0,        37.0,        38.0,
        51.0,        47.0,        46.0,        40.0,
        40.0,        38.0,        40.0,        42.0,
        34.0,        35.0,        36.0,        34.0,
        29.0,        31.0,        37.0,        35.0,
        26.0,        26.0,        25.0,        27.0,
        30.0,        28.0,        25.0,        24.0,
        27.0,        28.0,        33.0,        33.0,
        19.0,        17.0,        22.0,        27.0,
        21.0,        19.0,        22.0,        22.0,
        30.0,        17.0,        23.0,        12.0,
        22.0,        17.0,        23.0,        22.0,
        20.0,        19.0,        18.0,        17.0,
        27.0,        31.0,        18.0,        24.0,
        25.0,        28.0,        28.0,        25.0,
        15.0,        16.0,        17.0,        18.0,
        19.0,        20.0,        28.0,        18.0,
        30.0,        24.0,        22.0,        27.0,
        19.0,        23.0,        17.0,        19.0,
        12.0,        22.0,        23.0,        22.0,
        17.0,        19.0,        23.0,        22.0,
        13.0,        19.0,        14.0,        19.0,
        26.0,        19.0,        27.0,        15.0,
        18.0,        17.0,        17.0,        26.0,
        25.0,        22.0,        21.0,        26.0,
        25.0,        21.0,        24.0,        21.0,
        22.0,        37.0,        21.0,        23.0,
        22.0,        25.0,        29.0,        19.0,
        27.0,        23.0,        25.0,        37.0,
        29.0,        33.0,        32.0,        23.0,
        44.0,        40.0,        44.0,        32.0,
        41.0,        30.0,        41.0,        42.0,
        47.0,        47.0,        37.0,        54.0,
        45.0,        58.0,        53.0,        50.0,
        49.0,        53.0,        61.0,        68.0,
        63.0,        63.0,        72.0,        71.0,
        67.0,        71.0,        86.0,        77.0,
        78.0,        61.0,        90.0,        69.0,
        66.0,        69.0,        76.0,        66.0,
        61.0,        71.0,        70.0,        56.0,
        43.0,        55.0,        57.0,        42.0,
        36.0,        55.0,        36.0,        46.0,
        40.0,        29.0,        35.0,        35.0,
        39.0,        31.0,        35.0,        33.0,
        23.0,        31.0,        26.0,        23.0,
        25.0,        12.0,        27.0,        19.0,
        18.0,        18.0,        26.0,        25.0,
        23.0,        18.0,        14.0,        19.0,
        18.0,        17.0,        19.0,        24.0,
        39.0,        45.0,        30.0,        51.0,
        35.0,        76.0,        79.0,        92.0,
       102.0,       110.0,       101.0,       111.0,
       112.0,       113.0,       130.0,       139.0,
        89.0,        92.0,        97.0,        93.0,
        52.0,        63.0,        49.0,        45.0,
        24.0,        19.0,        26.0,        11.0,
        12.0,        20.0,        16.0,        14.0,
        11.0,        14.0,        10.0,        10.0,
        12.0,        10.0,        11.0,         9.0,
        12.0,        12.0,         7.0,        10.0,
        10.0,         8.0,         9.0,        12.0,
         6.0,        10.0,        14.0,         3.0,
         7.0,        15.0,        13.0,        12.0,
        13.0,         5.0,        15.0,        16.0,
        13.0,        16.0,        14.0,        10.0,
        14.0,        17.0,        20.0,        12.0,
        11.0,        10.0,        10.0,         8.0,
        19.0,        19.0,        14.0,        13.0,
        17.0,        18.0,        16.0,        13.0,
        11.0,        15.0,        15.0,        12.0,
        12.0,        16.0,         8.0,        11.0,
        13.0,        13.0,        12.0,        10.0,
        10.0,        13.0,        12.0,         8.0,
        14.0,         9.0,        11.0,        11.0,
         8.0,         9.0,        10.0,         7.0,
        12.0,         4.0,        10.0,         9.0,
         8.0,         5.0,         7.0,         8.0,
         5.0,         6.0,         5.0,         6.0,
         8.0,         5.0,         8.0,         6.0,
         7.0,         9.0,         6.0,         7.0,
        10.0,         8.0,         2.0,         3.0,
         5.0,         4.0,        14.0,        10.0,
        16.0,        16.0,        23.0,        14.0,
        10.0,        15.0,        20.0,        22.0,
        20.0,        19.0,        19.0,        21.0,
        19.0,        17.0,        12.0,         8.0,
         6.0,         9.0,         6.0,         4.0,
         6.0,         4.0,         4.0,         6.0,
         4.0,         3.0,         9.0,         7.0,
         2.0,         4.0,         5.0,         5.0,
         7.0,         7.0,         3.0,         3.0,
         5.0,         5.0,         5.0,         1.0,
         3.0,         2.0,         5.0,         2.0,
         3.0,         4.0,         3.0,         2.0,
         2.0,         3.0,         2.0,         3.0,
         5.0,         6.0,         2.0,         3.0,
         1.0,         2.0,         3.0,         1.0,
         2.0,         3.0,         2.0,         2.0,
         1.0,         1.0,         4.0,         3.0,
         3.0,         2.0,         2.0,         3.0,
         4.0,         1.0,         1.0,         4.0,
         2.0,         1.0,         1.0,         2.0,
         4.0,         1.0,         0.0,         2.0,
         2.0,         4.0,         4.0,         2.0,
         2.0,         2.0,         2.0,         2.0,
         3.0,         3.0,         2.0,         4.0,
         3.0,         1.0,         0.0,         2.0,
         1.0,         3.0,         4.0,         4.0,
         4.0,         2.0,         2.0,         4.0,
         3.0,         1.0,         0.0,         2.0,
         4.0,         1.0,         0.0,         1.0,
         2.0,         5.0,         4.0,         1.0,
         2.0,         2.0,         3.0,         2.0,
         3.0,         3.0,         1.0,         0.0,
         1.0,         2.0,         1.0,         1.0,
         2.0,         2.0,         2.0,         5.0,
         3.0,         1.0,         1.0,         2.0,
         3.0,         3.0,         1.0,         2.0,
         1.0,         1.0,         0.0,         3.0,
         3.0,         1.0,         1.0,         1.0,
         1.0,         1.0,         2.0,         1.0,
         0.0,         0.0,         0.0,         0.0,
         2.0,         1.0,         1.0,         1.0,
         3.0,         1.0,         1.0,         1.0,
         3.0,         1.0,         1.0,         1.0,
         5.0,         4.0,         1.0,         0.0,
         7.0,         2.0,         4.0,         3.0,
         1.0,         0.0,         2.0,         1.0,
         1.0,         1.0,         1.0,         2.0,
         2.0,         1.0,         1.0,         1.0,
         4.0,         2.0,         0.0,         0.0,
         1.0,         1.0,         1.0,         2.0,
         1.0,         2.0,         2.0,         0.0,
         2.0,         1.0,         2.0,         0.0,
         1.0,         1.0,         2.0,         1.0,
         0.0,         1.0,         2.0,         1.0,
         1.0,         0.0,         0.0,         1.0,
         1.0,         0.0,         2.0,         2.0,
         0.0,         0.0,         4.0,         3.0,
         2.0,         2.0,         3.0,         2.0,
         1.0,         1.0,         2.0,         3.0,
         1.0,         1.0,         1.0,         1.0,
         1.0,         1.0,         0.0,         0.0,
         1.0,         2.0,         2.0,         3.0,
         1.0,         1.0,         2.0,         1.0,
         2.0,         1.0,         1.0,         0.0,
         0.0,         1.0,         2.0,         1.0,
         2.0,         1.0,         1.0,         2.0,
         1.0,         2.0,         1.0,         0.0,
         1.0,         0.0,         1.0,         1.0,
         0.0,         0.0,         1.0,         2.0,
         3.0,         5.0,         2.0,         1.0,
         1.0,         1.0,         1.0,         0.0,
         1.0,         2.0,         0.0,         1.0,
         1.0,         1.0,         0.0,         0.0,
         0.0,         0.0,         2.0,         1.0,
         1.0,         2.0,         1.0,         0.0,
         0.0,         0.0,         1.0,         2.0,
         0.0,         1.0,         1.0,         1.0,
         0.0,         1.0,         2.0,         1.0,
         0.0,         0.0,         0.0,         1.0,
         0.0,         0.0,         0.0,         0.0,
         0.0,         3.0,         1.0,         1.0,
         0.0,         1.0,         1.0,         1.0,
         0.0,         0.0,         1.0,         1.0,
         0.0,         0.0,         1.0,         1.0,
         1.0,         0.0,         0.0,         0.0,
         0.0,         1.0,         1.0,         1.0,
         1.0,         1.0,         1.0,         0.0,
         1.0,         0.0,         0.0,         1.0,
         1.0,         0.0,         0.0,         0.0,
         0.0,         0.0,         1.0,         0.0,
         2.0,         0.0,         1.0,         0.0,
         1.0,         0.0,         0.0,         1.0,
         0.0,         0.0,         0.0,         1.0,
         1.0,         0.0,         0.0,         0.0,
         1.0,         0.0,         1.0,         1.0,
         1.0,         0.0,         0.0,         1.0,
         0.0,         0.0,         1.0,         1.0,
         2.0,         1.0,         1.0,         1.0,
         1.0,         1.0,         1.0,         1.0,
         0.0,         0.0,         1.0,         0.0,
         0.0,         1.0,         0.0,         0.0,
         1.0,         0.0,         1.0,         0.0,
         1.0,         1.0,         0.0,         0.0,
         0.0,         0.0,         0.0,         0.0,
         0.0,         1.0,         0.0,         0.0,
         0.0,         1.0,         0.0,         0.0,
         0.0,         0.0,         0.0,         0.0,
         1.0,         0.0,         0.0,         0.0,
         0.0,         0.0,         1.0,         0.0,
         0.0,         0.0,         0.0,         0.0,
         0.0,         0.0,         0.0,         0.0,
         2.0,         1.0,         0.0,         1.0,
         1.0,         1.0,         1.0,         0.0,
         2.0,         1.0,         1.0,         1.0,
         1.0,         0.0,         0.0,         1.0,
         0.0,         0.0,         0.0,         0.0,
         0.0,         1.0,         0.0,         0.0,
         1.0,         1.0,         0.0,         0.0,
         0.0,         1.0,         0.0,         0.0,
         0.0,         0.0,         1.0,         0.0,
         1.0,         2.0,         0.0,         0.0,
         1.0,         0.0,         1.0,         0.0,
         0.0,         0.0,         0.0,         0.0,
         0.0,         0.0,         2.0,         0.0,
         0.0,         0.0,         0.0,         0.0,
         1.0,         0.0,         0.0,         1.0,
         0.0,         0.0,         0.0,         1.0,
         0.0,         1.0,         0.0,         0.0,
         1.0,         1.0,         1.0,         2.0,
         0.0,         1.0,         1.0,         0.0,
         0.0,         0.0,         2.0,         0.0,
         0.0,         0.0,         1.0,         0.0,
         0.0,         0.0,         1.0,         1.0,
         1.0,         0.0,         1.0,         0.0,
         0.0,         0.0,         0.0,         0.0,
         0.0,         0.0,         0.0,         0.0,
         0.0,         0.0,         0.0,         0.0,
         0.0,         0.0,         0.0,         0.0,
         0.0,         0.0,         0.0,         0.0,
         0.0,         0.0,         0.0,         1.0,
         0.0,         0.0,         0.0,         1.0,
         0.0,         0.0,         0.0,         0.0,
         0.0,         0.0,         1.0,         0.0,
         0.0,         0.0,         0.0,         0.0,
         0.0,         0.0,         0.0,         0.0,
         0.0,         0.0,         1.0,         0.0,
         0.0,         0.0,         0.0,         0.0,
         0.0,         0.0,         0.0,         0.0,
         0.0,         0.0,         0.0,         1.0,
         1.0,         1.0,         0.0,         0.0,
         0.0,         0.0,         1.0,         0.0,
         0.0,         0.0,         0.0,         0.0,
         0.0,         2.0,         0.0,         0.0,
         0.0,         0.0,         0.0,         0.0,
         1.0,         0.0,         0.0,         0.0,
         0.0,         0.0,         0.0,         0.0,
         1.0,         0.0,         0.0,         0.0,
         0.0,         0.0,         0.0,         1.0,
         0.0,         1.0,         0.0,         0.0,
         0.0,         0.0,         0.0,         1.0,
         0.0,         0.0,         0.0,         0.0,
         0.0,         0.0,         0.0,         0.0,
         0.0,         0.0,         0.0,         0.0,
         0.0,         0.0,         0.0,         0.0,
         0.0,         0.0,         0.0,         0.0,
         0.0,         0.0,         0.0,         1.0,
         0.0,         0.0,         0.0,         0.0,
         1.0,         0.0,         0.0,         0.0,
         0.0,         0.0,         0.0,         0.0,
         0.0,         1.0,         0.0,         0.0,
         0.0,         0.0,         0.0,         0.0,
         0.0,         0.0,         0.0,         0.0,
         0.0,         0.0,         0.0,         0.0,
         1.0,         0.0,         0.0,         0.0,
         0.0,         0.0,         0.0,         0.0,
         0.0,         0.0,         0.0,         0.0,
         0.0,         0.0,         0.0,         0.0,
         0.0,         0.0,         0.0,         0.0,
         0.0,         1.0,         0.0,         0.0,
         0.0,         0.0,         0.0,         1.0,
         0.0,         0.0,         0.0,         0.0,
         1.0,         0.0,         0.0,         0.0,
         0.0,         0.0,         0.0,         0.0,
         0.0,         0.0,         0.0,         0.0,
         0.0,         0.0,         0.0,         0.0,
         0.0,         0.0,         0.0,         0.0,
         0.0,         0.0,         0.0,         0.0,
         0.0,         0.0,         0.0,         0.0,
         0.0,         0.0,         0.0,         0.0,
         0.0,         0.0,         0.0,         0.0,
         1.0,         0.0,         0.0,         0.0,
         0.0,         0.0,         0.0,         0.0,
         0.0,         0.0,         0.0,         0.0,
         0.0,         0.0,         0.0,         0.0,
         0.0,         0.0,         0.0,         0.0,
         0.0,         0.0,         0.0,         0.0,
         0.0,         0.0,         0.0,         0.0,
         0.0,         0.0,         0.0,         0.0,
         0.0,         0.0,         0.0,         0.0,
         0.0,         0.0,         0.0,         0.0,
         0.0,         0.0,         0.0,         0.0,
         0.0,         0.0,         0.0,         0.0,
         0.0,         0.0,         0.0,         0.0,
         0.0,         0.0,         0.0,         0.0,
         0.0,         0.0,         0.0,         1.0,
         0.0,         0.0,         0.0,         0.0,
         0.0,         0.0,         0.0,         0.0,
         0.0,         0.0,         0.0,         0.0,
         0.0,         0.0,         0.0,         0.0,
         0.0,         0.0,         0.0,         0.0,
         0.0,         0.0,         0.0,         0.0,
         1.0,         0.0,         0.0,         0.0,
         0.0,         0.0,         0.0,         0.0,
         1.0,         0.0,         0.0,         0.0,
         0.0,         1.0,         0.0,         0.0,
         0.0,         0.0,         0.0,         0.0,
         0.0,         1.0,         0.0,         0.0,
         0.0,         0.0,         0.0,         0.0,
         0.0,         0.0,         0.0,         0.0,
#ENDOFDATA   :