File: weave/XRF Stainless/Cu_50kv_50_ma_Rh_vac_D1.msa
#FORMAT      : EMSA/MAS SPECTRAL DATA FILE
#VERSION     : 1.0
#TITLE       : Bruker AXS spectrum Cu_50kv_50_ma_Rh_vac_D1.txt
#DATE        : 19-NOV-2019
#TIME        : 11:33
#OWNER       : Bruker AXS
#NPOINTS     : 4096.0
#NCOLUMNS    : 4.0
#XUNITS      : keV
#YUNITS      : Counts
#DATATYPE    : Y
#XPERCHAN    : 0.0099990
#OFFSET      : -0.9553045
#SIGNALTYPE  : EDS
#CHOFFSET    : 96
#LIVETIME  -s: 120.023
#REALTIME  -s: 138.147
##RTDET      : XFlash 430
#EDSDET      :
#TDEADLYR -cm: 0.000003
#TACTLYR  -cm: 0.045
##FANO       : 0.1135598
##MNFWHM -keV: 0.1439929
##IDENT      :
#SPECTRUM    :
         0.0,         0.0,         0.0,         0.0,
         0.0,         0.0,         0.0,         0.0,
         0.0,         0.0,         0.0,         0.0,
         0.0,         0.0,         0.0,         0.0,
         0.0,         0.0,         0.0,         0.0,
         0.0,         0.0,         0.0,         0.0,
         0.0,         0.0,         0.0,         0.0,
         0.0,         0.0,         0.0,         0.0,
         0.0,         0.0,         0.0,         2.0,
        12.0,        13.0,        18.0,        18.0,
        26.0,        28.0,        38.0,       101.0,
      9468.0,     18767.0,     33535.0,     54962.0,
    146993.0,    133971.0,    110672.0,     83219.0,
      4764.0,      2008.0,       788.0,       282.0,
         4.0,         2.0,         4.0,         2.0,
         0.0,         1.0,         0.0,         0.0,
         0.0,         0.0,         0.0,         6.0,
        35.0,        33.0,        42.0,        42.0,
        32.0,        35.0,        32.0,        25.0,
        19.0,        13.0,        34.0,        12.0,
        12.0,        18.0,        12.0,        10.0,
        14.0,         9.0,        14.0,         7.0,
        33.0,        31.0,        45.0,        22.0,
        82.0,       145.0,       183.0,       223.0,
       205.0,       172.0,       155.0,       138.0,
        31.0,        24.0,        24.0,        21.0,
        13.0,        14.0,        20.0,        20.0,
        12.0,        15.0,        17.0,        16.0,
        14.0,        17.0,        13.0,        16.0,
        11.0,        13.0,        11.0,         8.0,
        20.0,        23.0,        21.0,        31.0,
        26.0,        20.0,        21.0,        17.0,
        15.0,        10.0,         6.0,        14.0,
        14.0,        25.0,        27.0,        31.0,
        33.0,        31.0,        36.0,        33.0,
        33.0,        29.0,        34.0,        39.0,
        35.0,        37.0,        38.0,        36.0,
        38.0,        30.0,        30.0,        30.0,
        32.0,        33.0,        32.0,        33.0,
        38.0,        37.0,        37.0,        40.0,
        99.0,       113.0,       150.0,       159.0,
       188.0,       174.0,       160.0,       141.0,
        62.0,        57.0,        66.0,        64.0,
        47.0,        46.0,        48.0,        42.0,
        41.0,        55.0,        43.0,        42.0,
        76.0,        96.0,        94.0,       119.0,
       105.0,       105.0,        97.0,        97.0,
        84.0,       123.0,       127.0,       115.0,
       109.0,        96.0,        79.0,        79.0,
        69.0,        62.0,        63.0,        61.0,
        45.0,        53.0,        36.0,        37.0,
        43.0,        47.0,        41.0,        34.0,
        51.0,        66.0,        65.0,        65.0,
        91.0,       106.0,       106.0,       113.0,
       120.0,       117.0,       127.0,       119.0,
        68.0,        72.0,        81.0,        66.0,
        46.0,        50.0,        52.0,        45.0,
        52.0,        59.0,        63.0,        61.0,
       114.0,       123.0,       124.0,       140.0,
       155.0,       162.0,       170.0,       158.0,
       161.0,       159.0,       166.0,       151.0,
       105.0,        93.0,        85.0,        84.0,
        58.0,        55.0,        63.0,        64.0,
        43.0,        43.0,        46.0,        38.0,
        37.0,        40.0,        34.0,        30.0,
        30.0,        35.0,        37.0,        43.0,
        33.0,        33.0,        38.0,        43.0,
        40.0,        33.0,        37.0,        31.0,
        41.0,        39.0,        39.0,        44.0,
        35.0,        35.0,        35.0,        34.0,
        50.0,        38.0,        32.0,        42.0,
        37.0,        43.0,        40.0,        48.0,
        40.0,        31.0,        36.0,        42.0,
        53.0,        42.0,        44.0,        56.0,
        46.0,        54.0,        52.0,        54.0,
        59.0,        56.0,        48.0,        53.0,
        52.0,        55.0,        57.0,        65.0,
        83.0,        87.0,        81.0,        86.0,
       128.0,       128.0,       127.0,       144.0,
       147.0,       154.0,       150.0,       161.0,
       183.0,       179.0,       168.0,       171.0,
       156.0,       154.0,       162.0,       152.0,
       127.0,       124.0,       127.0,       125.0,
       104.0,        97.0,       102.0,        96.0,
       115.0,       106.0,        82.0,        98.0,
        96.0,       104.0,       106.0,       108.0,
       109.0,       113.0,       113.0,       112.0,
       101.0,       105.0,        99.0,       109.0,
       126.0,       153.0,       171.0,       175.0,
       228.0,       222.0,       252.0,       252.0,
       303.0,       303.0,       304.0,       313.0,
       392.0,       400.0,       392.0,       404.0,
       424.0,       416.0,       427.0,       410.0,
       404.0,       423.0,       423.0,       390.0,
       378.0,       375.0,       378.0,       390.0,
       349.0,       349.0,       342.0,       343.0,
       350.0,       352.0,       317.0,       304.0,
       315.0,       304.0,       298.0,       280.0,
       293.0,       285.0,       297.0,       293.0,
       265.0,       252.0,       269.0,       262.0,
       208.0,       213.0,       201.0,       192.0,
       191.0,       193.0,       176.0,       165.0,
       168.0,       174.0,       188.0,       185.0,
       214.0,       222.0,       235.0,       247.0,
       313.0,       331.0,       372.0,       392.0,
       491.0,       547.0,       551.0,       566.0,
       612.0,       627.0,       657.0,       672.0,
       727.0,       776.0,       814.0,       837.0,
       965.0,      1033.0,      1053.0,      1086.0,
      1496.0,      1656.0,      1842.0,      2209.0,
      8466.0,     11248.0,     15646.0,     21705.0,
     87392.0,    109362.0,    135016.0,    163075.0,
    310881.0,    332714.0,    347910.0,    356544.0,
    294766.0,    266772.0,    236425.0,    205482.0,
     73903.0,     56488.0,     42355.0,     31625.0,
      5834.0,      4100.0,      2960.0,      2182.0,
      1009.0,       913.0,       932.0,       915.0,
       850.0,       836.0,       840.0,       845.0,
       921.0,       931.0,       958.0,       962.0,
      1100.0,      1117.0,      1156.0,      1213.0,
      1508.0,      1558.0,      1683.0,      1877.0,
      4047.0,      4854.0,      5948.0,      7338.0,
     20335.0,     24191.0,     27897.0,     32006.0,
     48113.0,     49125.0,     49441.0,     49172.0,
     34803.0,     30559.0,     26671.0,     22681.0,
      7577.0,      5768.0,      4249.0,      3090.0,
       581.0,       395.0,       277.0,       225.0,
        69.0,        81.0,        71.0,        55.0,
        56.0,        59.0,        56.0,        52.0,
        63.0,        69.0,        70.0,        71.0,
        59.0,        52.0,        54.0,        55.0,
        63.0,        63.0,        51.0,        58.0,
        64.0,        56.0,        57.0,        58.0,
        63.0,        60.0,        51.0,        59.0,
        55.0,        47.0,        45.0,        53.0,
        51.0,        48.0,        53.0,        49.0,
        50.0,        48.0,        56.0,        51.0,
        49.0,        51.0,        41.0,        38.0,
        43.0,        40.0,        50.0,        49.0,
        53.0,        41.0,        36.0,        43.0,
        36.0,        43.0,        45.0,        48.0,
        38.0,        38.0,        42.0,        40.0,
        41.0,        37.0,        35.0,        35.0,
        34.0,        34.0,        31.0,        26.0,
        36.0,        34.0,        23.0,        31.0,
        34.0,        34.0,        30.0,        30.0,
        29.0,        25.0,        28.0,        32.0,
        36.0,        35.0,        40.0,        38.0,
        40.0,        48.0,        44.0,        45.0,
        49.0,        42.0,        38.0,        51.0,
        57.0,        63.0,        66.0,        62.0,
        66.0,        62.0,        67.0,        68.0,
        64.0,        69.0,        72.0,        80.0,
        90.0,       100.0,        86.0,        78.0,
        79.0,        81.0,        83.0,        85.0,
        81.0,        95.0,        97.0,        75.0,
        82.0,        73.0,        83.0,        82.0,
        74.0,        84.0,        86.0,        74.0,
        77.0,        73.0,        68.0,        61.0,
        61.0,        60.0,        58.0,        57.0,
        48.0,        49.0,        54.0,        55.0,
        49.0,        50.0,        44.0,        39.0,
        45.0,        46.0,        42.0,        39.0,
        45.0,        44.0,        38.0,        30.0,
        42.0,        47.0,        47.0,        44.0,
        43.0,        36.0,        37.0,        33.0,
        45.0,        36.0,        34.0,        37.0,
        42.0,        49.0,        45.0,        41.0,
        39.0,        42.0,        46.0,        45.0,
        37.0,        40.0,        41.0,        37.0,
        35.0,        39.0,        36.0,        45.0,
        44.0,        46.0,        41.0,        38.0,
        42.0,        42.0,        40.0,        34.0,
        31.0,        42.0,        39.0,        34.0,
        34.0,        34.0,        36.0,        37.0,
        26.0,        34.0,        39.0,        36.0,
        28.0,        26.0,        27.0,        36.0,
        33.0,        32.0,        36.0,        35.0,
        39.0,        40.0,        37.0,        38.0,
        38.0,        48.0,        45.0,        38.0,
        42.0,        49.0,        39.0,        38.0,
        46.0,        39.0,        37.0,        39.0,
        53.0,        44.0,        44.0,        53.0,
        31.0,        36.0,        49.0,        49.0,
        52.0,        43.0,        47.0,        42.0,
        52.0,        52.0,        47.0,        48.0,
        46.0,        49.0,        50.0,        47.0,
        51.0,        51.0,        51.0,        43.0,
        45.0,        46.0,        39.0,        37.0,
        44.0,        38.0,        44.0,        46.0,
        46.0,        41.0,        38.0,        46.0,
        42.0,        39.0,        35.0,        30.0,
        25.0,        29.0,        34.0,        33.0,
        31.0,        27.0,        29.0,        32.0,
        30.0,        32.0,        32.0,        34.0,
        34.0,        34.0,        26.0,        24.0,
        27.0,        22.0,        22.0,        16.0,
        24.0,        29.0,        26.0,        31.0,
        23.0,        24.0,        26.0,        27.0,
        26.0,        27.0,        20.0,        30.0,
        27.0,        27.0,        29.0,        27.0,
        21.0,        23.0,        23.0,        20.0,
        21.0,        30.0,        27.0,        24.0,
        19.0,        23.0,        26.0,        26.0,
        25.0,        23.0,        24.0,        22.0,
        21.0,        24.0,        17.0,        19.0,
        17.0,        17.0,        18.0,        22.0,
        21.0,        21.0,        20.0,        15.0,
        14.0,        15.0,        20.0,        11.0,
        15.0,        15.0,         7.0,        15.0,
        14.0,        16.0,        10.0,        11.0,
        10.0,         9.0,        12.0,        17.0,
        16.0,        16.0,        16.0,        15.0,
         9.0,         8.0,         8.0,         7.0,
         9.0,        10.0,        12.0,        12.0,
        11.0,        12.0,        12.0,         8.0,
         8.0,        10.0,         8.0,        12.0,
        22.0,        16.0,        12.0,        15.0,
        13.0,        19.0,        12.0,        17.0,
        21.0,        25.0,        13.0,        18.0,
        11.0,        11.0,        11.0,         8.0,
        10.0,         7.0,        12.0,        12.0,
        10.0,         9.0,         8.0,         8.0,
         8.0,        10.0,        10.0,         8.0,
        18.0,        22.0,        15.0,        11.0,
        22.0,        26.0,        18.0,        10.0,
        15.0,        22.0,        20.0,        13.0,
        22.0,        18.0,        17.0,        20.0,
        21.0,        14.0,        25.0,        19.0,
        21.0,        20.0,        20.0,        19.0,
        16.0,        23.0,        31.0,        20.0,
        17.0,        17.0,        25.0,        21.0,
         8.0,        19.0,        16.0,        11.0,
         4.0,        11.0,        19.0,        20.0,
        11.0,        12.0,        14.0,        15.0,
        12.0,        18.0,        20.0,        17.0,
        13.0,        18.0,        21.0,        20.0,
        14.0,        11.0,        20.0,        20.0,
        15.0,        16.0,        15.0,        22.0,
        16.0,        18.0,        24.0,        26.0,
        21.0,        22.0,        14.0,        16.0,
        18.0,        20.0,        26.0,        20.0,
        16.0,        28.0,        21.0,        22.0,
        24.0,        23.0,        19.0,        23.0,
        27.0,        28.0,        31.0,        27.0,
        30.0,        25.0,        30.0,        26.0,
        21.0,        32.0,        26.0,        31.0,
        37.0,        31.0,        31.0,        24.0,
        32.0,        33.0,        36.0,        39.0,
        26.0,        31.0,        28.0,        36.0,
        33.0,        26.0,        36.0,        29.0,
        27.0,        30.0,        19.0,        24.0,
        22.0,        21.0,        29.0,        25.0,
        27.0,        19.0,        28.0,        22.0,
        22.0,        16.0,        18.0,        19.0,
        21.0,        18.0,        18.0,        17.0,
        22.0,        20.0,        13.0,        20.0,
        21.0,        13.0,        12.0,        16.0,
         7.0,        13.0,        11.0,        12.0,
         8.0,        17.0,        11.0,        12.0,
        18.0,        20.0,         9.0,        17.0,
        33.0,        36.0,        39.0,        43.0,
        57.0,        73.0,        75.0,        86.0,
        94.0,       104.0,       146.0,       123.0,
       143.0,       140.0,       155.0,       138.0,
       127.0,       119.0,       101.0,       113.0,
        85.0,        73.0,        69.0,        44.0,
        21.0,        28.0,        22.0,        14.0,
        10.0,         8.0,        15.0,         4.0,
         7.0,         6.0,         9.0,        10.0,
         6.0,         9.0,        13.0,         9.0,
         9.0,        13.0,         6.0,         6.0,
        13.0,         7.0,         3.0,         7.0,
         8.0,        11.0,        14.0,        11.0,
         8.0,         4.0,        10.0,         9.0,
        13.0,        10.0,         7.0,         6.0,
        10.0,         9.0,        10.0,         9.0,
        10.0,        10.0,         9.0,        10.0,
         4.0,        10.0,         9.0,         9.0,
        10.0,         8.0,         9.0,        10.0,
         7.0,         8.0,         9.0,         3.0,
         9.0,        10.0,         7.0,         7.0,
         5.0,         7.0,         7.0,        11.0,
         9.0,         4.0,         2.0,         8.0,
         5.0,         3.0,         4.0,         4.0,
         2.0,         9.0,         4.0,         7.0,
        10.0,         4.0,         7.0,         6.0,
         3.0,         2.0,         5.0,         3.0,
         4.0,         2.0,         1.0,         3.0,
         4.0,         2.0,         5.0,         1.0,
         2.0,         7.0,         4.0,         7.0,
         4.0,         6.0,         5.0,         3.0,
         4.0,         3.0,         4.0,         5.0,
         5.0,         3.0,        10.0,         9.0,
         7.0,         7.0,        12.0,        12.0,
        19.0,        12.0,        13.0,        20.0,
        27.0,        21.0,        19.0,        16.0,
        16.0,        16.0,         9.0,        10.0,
         8.0,         7.0,         6.0,         6.0,
         7.0,         6.0,         8.0,         7.0,
         2.0,         3.0,         2.0,         5.0,
         8.0,         4.0,         4.0,         8.0,
         3.0,         6.0,         7.0,         6.0,
         4.0,         5.0,         3.0,         2.0,
         2.0,         1.0,         4.0,         5.0,
         3.0,         2.0,         0.0,         1.0,
         1.0,         5.0,         2.0,         1.0,
         1.0,         0.0,         5.0,         2.0,
         2.0,         3.0,         2.0,         0.0,
         2.0,         2.0,         1.0,         0.0,
         0.0,         0.0,         0.0,         0.0,
         0.0,         0.0,         0.0,         0.0,
         0.0,         0.0,         0.0,         0.0,
         0.0,         0.0,         1.0,         1.0,
         0.0,         0.0,         1.0,         2.0,
         3.0,         3.0,         4.0,         3.0,
         1.0,         1.0,         2.0,         2.0,
         3.0,         3.0,         2.0,         1.0,
         2.0,         2.0,         2.0,         3.0,
         1.0,         1.0,         0.0,         0.0,
         0.0,         0.0,         1.0,         1.0,
         0.0,         0.0,         0.0,         0.0,
         0.0,         0.0,         0.0,         0.0,
         0.0,         0.0,         0.0,         0.0,
         0.0,         0.0,         1.0,         0.0,
         0.0,         2.0,         1.0,         2.0,
         0.0,         2.0,         2.0,         2.0,
         1.0,         2.0,         1.0,         0.0,
         3.0,         1.0,         2.0,         3.0,
         3.0,         1.0,         0.0,         1.0,
         5.0,         1.0,         0.0,         2.0,
         0.0,         0.0,         0.0,         0.0,
         1.0,         0.0,         0.0,         0.0,
         0.0,         1.0,         1.0,         2.0,
         2.0,         1.0,         0.0,         1.0,
         0.0,         0.0,         1.0,         1.0,
         1.0,         1.0,         2.0,         0.0,
         1.0,         1.0,         0.0,         0.0,
         2.0,         2.0,         1.0,         1.0,
         1.0,         1.0,         0.0,         0.0,
         1.0,         0.0,         2.0,         2.0,
         1.0,         0.0,         1.0,         3.0,
         1.0,         0.0,         0.0,         0.0,
         0.0,         2.0,         3.0,         1.0,
         0.0,         0.0,         2.0,         1.0,
         1.0,         1.0,         1.0,         1.0,
         2.0,         0.0,         0.0,         3.0,
         1.0,         1.0,         2.0,         2.0,
         0.0,         0.0,         0.0,         1.0,
         2.0,         1.0,         1.0,         1.0,
         0.0,         0.0,         1.0,         0.0,
         0.0,         1.0,         2.0,         2.0,
         1.0,         1.0,         1.0,         2.0,
         1.0,         0.0,         0.0,         1.0,
         0.0,         1.0,         1.0,         0.0,
         1.0,         2.0,         0.0,         1.0,
         0.0,         2.0,         1.0,         1.0,
         0.0,         1.0,         1.0,         1.0,
         1.0,         1.0,         1.0,         2.0,
         1.0,         2.0,         0.0,         0.0,
         0.0,         1.0,         1.0,         0.0,
         0.0,         1.0,         1.0,         0.0,
         0.0,         0.0,         1.0,         0.0,
         1.0,         0.0,         0.0,         1.0,
         0.0,         0.0,         0.0,         0.0,
         2.0,         1.0,         0.0,         2.0,
         1.0,         2.0,         1.0,         2.0,
         1.0,         1.0,         0.0,         0.0,
         0.0,         0.0,         1.0,         0.0,
         1.0,         1.0,         0.0,         0.0,
         0.0,         1.0,         1.0,         0.0,
         0.0,         0.0,         0.0,         0.0,
         1.0,         0.0,         0.0,         0.0,
         0.0,         0.0,         0.0,         0.0,
         0.0,         0.0,         0.0,         0.0,
         0.0,         0.0,         0.0,         0.0,
         1.0,         1.0,         0.0,         1.0,
         0.0,         1.0,         1.0,         0.0,
         0.0,         1.0,         1.0,         1.0,
         0.0,         0.0,         0.0,         1.0,
         1.0,         1.0,         0.0,         1.0,
         1.0,         1.0,         1.0,         0.0,
         0.0,         0.0,         1.0,         0.0,
         0.0,         0.0,         1.0,         0.0,
         1.0,         0.0,         1.0,         0.0,
         0.0,         1.0,         0.0,         0.0,
         0.0,         0.0,         0.0,         2.0,
         2.0,         1.0,         0.0,         0.0,
         0.0,         0.0,         0.0,         0.0,
         1.0,         1.0,         0.0,         0.0,
         0.0,         0.0,         0.0,         0.0,
         0.0,         0.0,         0.0,         0.0,
         0.0,         0.0,         0.0,         0.0,
         0.0,         0.0,         0.0,         0.0,
         0.0,         0.0,         0.0,         0.0,
         0.0,         0.0,         0.0,         0.0,
         0.0,         0.0,         1.0,         0.0,
         0.0,         0.0,         0.0,         1.0,
         1.0,         1.0,         0.0,         0.0,
         0.0,         1.0,         0.0,         0.0,
         0.0,         0.0,         0.0,         1.0,
         0.0,         0.0,         0.0,         1.0,
         0.0,         0.0,         0.0,         0.0,
         1.0,         0.0,         1.0,         1.0,
         0.0,         0.0,         0.0,         0.0,
         0.0,         0.0,         0.0,         0.0,
         0.0,         0.0,         0.0,         0.0,
         0.0,         0.0,         0.0,         0.0,
         0.0,         0.0,         0.0,         1.0,
         0.0,         1.0,         0.0,         0.0,
         0.0,         0.0,         0.0,         0.0,
         0.0,         1.0,         0.0,         0.0,
         0.0,         0.0,         0.0,         0.0,
         0.0,         0.0,         1.0,         0.0,
         0.0,         1.0,         1.0,         0.0,
         1.0,         0.0,         0.0,         0.0,
         0.0,         0.0,         2.0,         0.0,
         1.0,         0.0,         0.0,         0.0,
         0.0,         0.0,         0.0,         0.0,
         0.0,         0.0,         1.0,         0.0,
         0.0,         0.0,         0.0,         0.0,
         2.0,         1.0,         0.0,         0.0,
         0.0,         0.0,         0.0,         0.0,
         0.0,         0.0,         0.0,         0.0,
         0.0,         0.0,         0.0,         0.0,
         0.0,         1.0,         0.0,         1.0,
         0.0,         0.0,         0.0,         0.0,
         0.0,         0.0,         0.0,         0.0,
         0.0,         1.0,         1.0,         0.0,
         0.0,         0.0,         0.0,         0.0,
         0.0,         0.0,         0.0,         0.0,
         0.0,         0.0,         0.0,         0.0,
         0.0,         1.0,         2.0,         1.0,
         0.0,         0.0,         1.0,         0.0,
         0.0,         0.0,         0.0,         1.0,
         1.0,         0.0,         0.0,         1.0,
         0.0,         0.0,         1.0,         0.0,
         1.0,         0.0,         0.0,         1.0,
         0.0,         0.0,         0.0,         0.0,
         0.0,         0.0,         0.0,         0.0,
         0.0,         0.0,         0.0,         0.0,
         0.0,         1.0,         0.0,         0.0,
         1.0,         0.0,         1.0,         0.0,
         0.0,         0.0,         0.0,         0.0,
         0.0,         0.0,         0.0,         0.0,
         0.0,         0.0,         0.0,         0.0,
         0.0,         0.0,         0.0,         0.0,
         0.0,         0.0,         0.0,         0.0,
         0.0,         0.0,         0.0,         0.0,
         1.0,         0.0,         0.0,         1.0,
         0.0,         0.0,         1.0,         0.0,
         0.0,         0.0,         0.0,         0.0,
         0.0,         1.0,         0.0,         0.0,
         0.0,         0.0,         0.0,         0.0,
         0.0,         1.0,         0.0,         0.0,
         0.0,         0.0,         0.0,         0.0,
         0.0,         0.0,         0.0,         1.0,
         0.0,         0.0,         0.0,         1.0,
         0.0,         0.0,         0.0,         0.0,
         0.0,         0.0,         0.0,         0.0,
         0.0,         0.0,         0.0,         0.0,
         0.0,         1.0,         0.0,         0.0,
         0.0,         0.0,         0.0,         0.0,
         0.0,         0.0,         0.0,         0.0,
         0.0,         0.0,         1.0,         0.0,
         0.0,         1.0,         0.0,         2.0,
         0.0,         0.0,         0.0,         0.0,
         0.0,         0.0,         0.0,         0.0,
         0.0,         0.0,         0.0,         0.0,
         0.0,         0.0,         0.0,         0.0,
         0.0,         0.0,         0.0,         0.0,
         0.0,         2.0,         0.0,         0.0,
         0.0,         0.0,         0.0,         0.0,
         0.0,         0.0,         0.0,         0.0,
         0.0,         0.0,         0.0,         0.0,
         0.0,         0.0,         1.0,         0.0,
         0.0,         0.0,         0.0,         0.0,
         0.0,         0.0,         0.0,         0.0,
         0.0,         0.0,         0.0,         0.0,
         0.0,         0.0,         0.0,         0.0,
         0.0,         0.0,         0.0,         0.0,
         0.0,         0.0,         0.0,         0.0,
         0.0,         1.0,         0.0,         0.0,
         0.0,         1.0,         0.0,         0.0,
         0.0,         0.0,         0.0,         0.0,
         0.0,         0.0,         0.0,         0.0,
         0.0,         0.0,         0.0,         0.0,
         0.0,         0.0,         0.0,         0.0,
         0.0,         0.0,         0.0,         0.0,
         0.0,         0.0,         0.0,         0.0,
         0.0,         0.0,         0.0,         0.0,
         0.0,         0.0,         0.0,         0.0,
         0.0,         0.0,         0.0,         0.0,
         0.0,         0.0,         0.0,         0.0,
         0.0,         0.0,         0.0,         1.0,
         0.0,         0.0,         0.0,         1.0,
         0.0,         0.0,         0.0,         0.0,
         0.0,         0.0,         0.0,         0.0,
         0.0,         1.0,         0.0,         0.0,
         0.0,         0.0,         0.0,         0.0,
         0.0,         0.0,         0.0,         0.0,
         0.0,         0.0,         0.0,         0.0,
         0.0,         0.0,         0.0,         0.0,
         0.0,         0.0,         0.0,         0.0,
         0.0,         0.0,         0.0,         0.0,
         0.0,         0.0,         1.0,         0.0,
         0.0,         0.0,         0.0,         0.0,
         0.0,         0.0,         0.0,         0.0,
         0.0,         0.0,         0.0,         0.0,
         0.0,         0.0,         0.0,         0.0,
         0.0,         0.0,         0.0,         0.0,
         0.0,         0.0,         0.0,         0.0,
         0.0,         0.0,         0.0,         0.0,
#ENDOFDATA   :