File: weave/XRF Stainless/S_50kv_50_ma_Rh_vac_D1.msa
#FORMAT      : EMSA/MAS SPECTRAL DATA FILE
#VERSION     : 1.0
#TITLE       : Bruker AXS spectrum S_50kv_50_ma_Rh_vac_D1.txt
#DATE        : 19-NOV-2019
#TIME        : 11:29
#OWNER       : Bruker AXS
#NPOINTS     : 4096.0
#NCOLUMNS    : 4.0
#XUNITS      : keV
#YUNITS      : Counts
#DATATYPE    : Y
#XPERCHAN    : 0.0099990
#OFFSET      : -0.9553045
#SIGNALTYPE  : EDS
#CHOFFSET    : 96
#LIVETIME  -s: 120.013
#REALTIME  -s: 122.159
##RTDET      : XFlash 430
#EDSDET      :
#TDEADLYR -cm: 0.000003
#TACTLYR  -cm: 0.045
##FANO       : 0.1135598
##MNFWHM -keV: 0.1439521
##IDENT      : FeSiTiCrCuAsRhSnZrSNi
#SPECTRUM    :
         0.0,         0.0,         0.0,         0.0,
         0.0,         0.0,         0.0,         0.0,
         0.0,         0.0,         0.0,         0.0,
         0.0,         0.0,         0.0,         0.0,
         0.0,         0.0,         0.0,         0.0,
         0.0,         0.0,         0.0,         0.0,
         0.0,         0.0,         0.0,         0.0,
         0.0,         0.0,         0.0,         0.0,
         0.0,         0.0,         0.0,         0.0,
         1.0,         1.0,         2.0,         0.0,
         4.0,         9.0,        19.0,        73.0,
      9719.0,     19228.0,     34090.0,     55592.0,
    146171.0,    133527.0,    109879.0,     82446.0,
      4452.0,      1864.0,       719.0,       268.0,
         1.0,         0.0,         0.0,         0.0,
         0.0,         1.0,         0.0,         0.0,
        -5.0,        -3.0,        -4.0,         0.0,
        43.0,        57.0,        70.0,        73.0,
       157.0,       117.0,       150.0,       136.0,
       160.0,        59.0,        77.0,       156.0,
       126.0,       145.0,        88.0,        94.0,
        71.0,        67.0,       102.0,        92.0,
        75.0,       112.0,        93.0,        94.0,
        76.0,        82.0,        94.0,        85.0,
        79.0,        83.0,        93.0,        88.0,
        65.0,        83.0,        87.0,        96.0,
        72.0,        78.0,        81.0,        78.0,
        83.0,        88.0,        90.0,        82.0,
        84.0,        97.0,        87.0,        78.0,
        88.0,        81.0,        77.0,        76.0,
        84.0,        88.0,        85.0,        88.0,
        88.0,        81.0,        86.0,        91.0,
        86.0,        89.0,        91.0,        82.0,
        85.0,        98.0,       101.0,       123.0,
       126.0,       111.0,       100.0,       109.0,
       131.0,       146.0,       155.0,       144.0,
       172.0,       200.0,       198.0,       204.0,
       252.0,       268.0,       279.0,       285.0,
       290.0,       293.0,       317.0,       296.0,
      1070.0,      1643.0,      2647.0,      4413.0,
     31082.0,     40891.0,     51991.0,     62857.0,
     79832.0,     72205.0,     62503.0,     52215.0,
     12286.0,      9144.0,      7414.0,      6425.0,
      4873.0,      4408.0,      3710.0,      3015.0,
       558.0,       382.0,       243.0,       145.0,
        41.0,        44.0,        52.0,        54.0,
        50.0,        54.0,        54.0,        54.0,
        76.0,        77.0,        99.0,       108.0,
        83.0,        84.0,        75.0,        68.0,
        45.0,        47.0,        41.0,        35.0,
        15.0,        14.0,        13.0,         7.0,
         9.0,         7.0,        10.0,         9.0,
         3.0,         6.0,         6.0,         5.0,
         5.0,         3.0,         4.0,         5.0,
         7.0,         9.0,         8.0,         5.0,
         5.0,         7.0,        12.0,         7.0,
         5.0,         6.0,         6.0,        10.0,
        11.0,         6.0,        11.0,         9.0,
         8.0,        11.0,        12.0,        10.0,
         6.0,         8.0,         9.0,        10.0,
         8.0,        11.0,         9.0,         8.0,
        12.0,        12.0,        13.0,         9.0,
        13.0,        12.0,        15.0,        14.0,
        14.0,        15.0,        13.0,        14.0,
        21.0,        21.0,        18.0,        19.0,
        19.0,        24.0,        26.0,        27.0,
        19.0,        18.0,        21.0,        18.0,
        22.0,        26.0,        23.0,        31.0,
        27.0,        27.0,        25.0,        32.0,
        43.0,        42.0,        32.0,        30.0,
        25.0,        26.0,        24.0,        22.0,
        23.0,        22.0,        23.0,        28.0,
        35.0,        35.0,        33.0,        29.0,
        22.0,        25.0,        35.0,        36.0,
        30.0,        30.0,        28.0,        30.0,
        41.0,        29.0,        31.0,        30.0,
        36.0,        32.0,        37.0,        36.0,
        41.0,        36.0,        31.0,        23.0,
        33.0,        32.0,        33.0,        37.0,
        26.0,        29.0,        31.0,        33.0,
        28.0,        33.0,        38.0,        30.0,
        34.0,        40.0,        34.0,        35.0,
        38.0,        36.0,        36.0,        31.0,
        30.0,        35.0,        34.0,        33.0,
        29.0,        31.0,        35.0,        34.0,
        36.0,        34.0,        42.0,        45.0,
        43.0,        51.0,        50.0,        44.0,
        42.0,        41.0,        40.0,        43.0,
        44.0,        39.0,        46.0,        46.0,
        51.0,        49.0,        53.0,        50.0,
        63.0,        60.0,        55.0,        61.0,
        55.0,        74.0,        75.0,        63.0,
        77.0,        70.0,        68.0,        67.0,
        70.0,        82.0,        84.0,        82.0,
        66.0,        70.0,        87.0,        90.0,
        92.0,        85.0,        84.0,        77.0,
        96.0,        83.0,        86.0,       105.0,
       106.0,       109.0,       110.0,       102.0,
       114.0,       103.0,       106.0,       102.0,
       115.0,       127.0,       123.0,       114.0,
       111.0,       105.0,       116.0,       119.0,
       126.0,       133.0,       131.0,       120.0,
       116.0,       112.0,       111.0,       124.0,
       120.0,       119.0,       122.0,       122.0,
       125.0,       120.0,       135.0,       131.0,
       135.0,       135.0,       128.0,       142.0,
       140.0,       135.0,       134.0,       137.0,
       139.0,       138.0,       141.0,       152.0,
       152.0,       152.0,       134.0,       131.0,
       141.0,       152.0,       155.0,       134.0,
       149.0,       151.0,       151.0,       145.0,
       155.0,       138.0,       150.0,       167.0,
       155.0,       145.0,       149.0,       150.0,
       165.0,       156.0,       153.0,       157.0,
       169.0,       147.0,       143.0,       145.0,
       151.0,       164.0,       168.0,       166.0,
       164.0,       166.0,       154.0,       163.0,
       158.0,       145.0,       140.0,       150.0,
       155.0,       162.0,       154.0,       143.0,
       158.0,       161.0,       155.0,       149.0,
       182.0,       166.0,       164.0,       159.0,
       145.0,       155.0,       153.0,       159.0,
       160.0,       160.0,       158.0,       165.0,
       170.0,       183.0,       178.0,       175.0,
       177.0,       169.0,       185.0,       182.0,
       182.0,       174.0,       168.0,       180.0,
       160.0,       183.0,       184.0,       174.0,
       166.0,       180.0,       170.0,       180.0,
       191.0,       200.0,       186.0,       177.0,
       182.0,       199.0,       184.0,       191.0,
       192.0,       190.0,       171.0,       181.0,
       183.0,       191.0,       201.0,       195.0,
       191.0,       187.0,       176.0,       188.0,
       183.0,       180.0,       197.0,       188.0,
       199.0,       200.0,       189.0,       194.0,
       183.0,       192.0,       199.0,       192.0,
       183.0,       173.0,       180.0,       189.0,
       195.0,       194.0,       200.0,       192.0,
       197.0,       192.0,       202.0,       195.0,
       203.0,       193.0,       205.0,       204.0,
       201.0,       201.0,       197.0,       211.0,
       208.0,       203.0,       202.0,       216.0,
       214.0,       192.0,       193.0,       208.0,
       188.0,       185.0,       191.0,       183.0,
       215.0,       213.0,       214.0,       209.0,
       209.0,       210.0,       200.0,       208.0,
       211.0,       219.0,       210.0,       217.0,
       221.0,       216.0,       203.0,       213.0,
       208.0,       206.0,       202.0,       207.0,
       206.0,       218.0,       199.0,       203.0,
       214.0,       208.0,       221.0,       221.0,
       208.0,       202.0,       195.0,       206.0,
       222.0,       223.0,       212.0,       224.0,
       214.0,       203.0,       202.0,       203.0,
       210.0,       217.0,       212.0,       198.0,
       193.0,       199.0,       178.0,       175.0,
       206.0,       207.0,       203.0,       192.0,
       192.0,       194.0,       198.0,       192.0,
       178.0,       185.0,       204.0,       199.0,
       187.0,       184.0,       188.0,       186.0,
       180.0,       176.0,       177.0,       172.0,
       181.0,       188.0,       171.0,       168.0,
       166.0,       181.0,       170.0,       167.0,
       164.0,       162.0,       155.0,       169.0,
       171.0,       172.0,       164.0,       162.0,
       166.0,       170.0,       176.0,       169.0,
       172.0,       177.0,       182.0,       170.0,
       177.0,       171.0,       165.0,       165.0,
       165.0,       174.0,       181.0,       178.0,
       142.0,       136.0,       145.0,       152.0,
       158.0,       160.0,       153.0,       145.0,
       149.0,       152.0,       167.0,       160.0,
       157.0,       151.0,       141.0,       138.0,
       159.0,       159.0,       150.0,       142.0,
       138.0,       151.0,       143.0,       137.0,
       145.0,       154.0,       134.0,       137.0,
       143.0,       149.0,       138.0,       138.0,
       117.0,       130.0,       137.0,       134.0,
       142.0,       141.0,       129.0,       131.0,
       140.0,       132.0,       129.0,       132.0,
       132.0,       131.0,       118.0,       119.0,
       123.0,       134.0,       126.0,       119.0,
       140.0,       119.0,       134.0,       147.0,
       117.0,       123.0,       120.0,       118.0,
       124.0,       110.0,       115.0,       130.0,
       109.0,       119.0,       133.0,       134.0,
       132.0,       120.0,       127.0,       118.0,
       127.0,       140.0,       116.0,       124.0,
       115.0,       130.0,       133.0,       126.0,
       130.0,       119.0,        99.0,        98.0,
       104.0,       105.0,       108.0,        99.0,
       108.0,       107.0,       124.0,       112.0,
        95.0,       114.0,       109.0,       105.0,
       120.0,       104.0,        93.0,        96.0,
       103.0,       111.0,       109.0,       100.0,
       109.0,       101.0,       105.0,       108.0,
       101.0,       105.0,       101.0,        97.0,
       100.0,       109.0,       105.0,       104.0,
        84.0,        90.0,       104.0,        94.0,
        99.0,       101.0,        99.0,        98.0,
        88.0,        81.0,        80.0,        79.0,
        91.0,        98.0,       103.0,        89.0,
        88.0,        87.0,        85.0,       100.0,
        86.0,        91.0,        75.0,        86.0,
        88.0,       101.0,        96.0,        76.0,
        80.0,        91.0,        83.0,        80.0,
        71.0,        75.0,        79.0,        78.0,
        79.0,        74.0,        93.0,        70.0,
        75.0,        87.0,        74.0,        86.0,
        73.0,        72.0,        74.0,        83.0,
        67.0,        72.0,        61.0,        68.0,
        74.0,        70.0,        70.0,        79.0,
        71.0,        79.0,        72.0,        73.0,
        70.0,        74.0,        65.0,        61.0,
        57.0,        67.0,        82.0,        73.0,
        70.0,        72.0,        66.0,        58.0,
        70.0,        67.0,        57.0,        66.0,
        66.0,        74.0,        81.0,        70.0,
        57.0,        59.0,        63.0,        61.0,
        58.0,        58.0,        66.0,        62.0,
        60.0,        54.0,        60.0,        61.0,
        50.0,        60.0,        69.0,        54.0,
        69.0,        52.0,        68.0,        68.0,
        59.0,        68.0,        72.0,        55.0,
        50.0,        45.0,        56.0,        70.0,
        63.0,        62.0,        61.0,        59.0,
        58.0,        58.0,        53.0,        58.0,
        68.0,        59.0,        58.0,        65.0,
        53.0,        44.0,        53.0,        63.0,
        59.0,        67.0,        60.0,        69.0,
        64.0,        64.0,        50.0,        60.0,
        51.0,        68.0,        58.0,        54.0,
        51.0,        68.0,        58.0,        57.0,
        53.0,        60.0,        59.0,        63.0,
        63.0,        69.0,        64.0,        68.0,
        71.0,        65.0,        54.0,        69.0,
        75.0,        84.0,        62.0,        68.0,
        57.0,        76.0,        52.0,        64.0,
        60.0,        60.0,        68.0,        66.0,
        71.0,        60.0,        61.0,        59.0,
        69.0,        75.0,        82.0,        79.0,
        66.0,        70.0,        70.0,        76.0,
        76.0,        78.0,        81.0,        90.0,
        78.0,       101.0,        90.0,       101.0,
        93.0,        98.0,       101.0,       104.0,
       141.0,       134.0,       141.0,       140.0,
       143.0,       147.0,       158.0,       156.0,
       194.0,       199.0,       181.0,       201.0,
       212.0,       195.0,       217.0,       209.0,
       231.0,       238.0,       204.0,       215.0,
       228.0,       216.0,       235.0,       203.0,
       191.0,       214.0,       181.0,       187.0,
       167.0,       155.0,       146.0,       124.0,
       130.0,       117.0,       139.0,       130.0,
       111.0,        93.0,        87.0,        98.0,
        97.0,        78.0,        92.0,        81.0,
        68.0,        87.0,        66.0,        86.0,
        68.0,        62.0,        72.0,        64.0,
        65.0,        59.0,        74.0,        50.0,
        57.0,        74.0,        77.0,        64.0,
        60.0,        67.0,        60.0,        59.0,
        64.0,        77.0,        80.0,        74.0,
       106.0,       123.0,       119.0,       131.0,
       199.0,       175.0,       176.0,       197.0,
       207.0,       184.0,       205.0,       188.0,
       193.0,       184.0,       176.0,       150.0,
       135.0,       112.0,        91.0,        88.0,
        50.0,        47.0,        51.0,        47.0,
        32.0,        24.0,        27.0,        36.0,
        40.0,        29.0,        16.0,        27.0,
        26.0,        27.0,        27.0,        30.0,
        32.0,        26.0,        32.0,        32.0,
        27.0,        33.0,        39.0,        25.0,
        41.0,        37.0,        28.0,        38.0,
        45.0,        37.0,        39.0,        43.0,
        40.0,        38.0,        39.0,        47.0,
        37.0,        31.0,        46.0,        39.0,
        42.0,        35.0,        53.0,        33.0,
        38.0,        41.0,        55.0,        45.0,
        37.0,        39.0,        36.0,        40.0,
        36.0,        36.0,        27.0,        36.0,
        38.0,        44.0,        34.0,        30.0,
        30.0,        34.0,        29.0,        26.0,
        21.0,        18.0,        30.0,        23.0,
        32.0,        25.0,        21.0,        23.0,
        25.0,        18.0,         8.0,        12.0,
        13.0,        19.0,        23.0,        16.0,
        15.0,        13.0,        14.0,        15.0,
        16.0,        13.0,        16.0,        25.0,
        21.0,        12.0,        12.0,        19.0,
        15.0,        15.0,        14.0,         9.0,
        14.0,        16.0,        14.0,        18.0,
        14.0,        18.0,        17.0,        14.0,
        18.0,        19.0,        18.0,        15.0,
        18.0,        17.0,        20.0,        17.0,
        35.0,        28.0,        22.0,        28.0,
        34.0,        25.0,        32.0,        34.0,
        25.0,        29.0,        26.0,        21.0,
        17.0,        20.0,        12.0,        13.0,
        13.0,        10.0,         8.0,         4.0,
        13.0,         9.0,        12.0,        13.0,
        11.0,        10.0,        10.0,        17.0,
         8.0,        10.0,        13.0,        15.0,
        11.0,        12.0,        10.0,         9.0,
        11.0,        13.0,        11.0,         4.0,
         3.0,         4.0,         6.0,         6.0,
         6.0,         3.0,         3.0,        12.0,
        12.0,        10.0,         5.0,         7.0,
        10.0,         6.0,         7.0,         3.0,
         9.0,         8.0,        14.0,         9.0,
         5.0,         5.0,         6.0,         9.0,
         4.0,         6.0,         7.0,         7.0,
         8.0,        11.0,         4.0,         3.0,
         5.0,         7.0,         6.0,         8.0,
         7.0,         6.0,         7.0,         6.0,
         6.0,         7.0,         7.0,         7.0,
         8.0,         5.0,         6.0,         8.0,
         3.0,         5.0,         7.0,         5.0,
         6.0,         5.0,         6.0,         9.0,
        10.0,         8.0,         5.0,         7.0,
        10.0,         9.0,         8.0,         5.0,
         4.0,         5.0,         6.0,        10.0,
         8.0,         7.0,         4.0,         4.0,
         4.0,         6.0,         6.0,         7.0,
         3.0,         4.0,         6.0,         5.0,
         7.0,         9.0,         6.0,         3.0,
         4.0,         6.0,         4.0,         4.0,
         6.0,         5.0,         6.0,         7.0,
         3.0,         3.0,         3.0,         5.0,
         4.0,         7.0,         6.0,         6.0,
         8.0,         5.0,         5.0,         5.0,
         6.0,         4.0,         4.0,         3.0,
         3.0,         4.0,         3.0,         1.0,
         1.0,         2.0,         6.0,         6.0,
         4.0,         3.0,         7.0,         6.0,
         2.0,         1.0,         2.0,         5.0,
         6.0,         4.0,         3.0,         4.0,
         4.0,         5.0,         4.0,         8.0,
         2.0,         5.0,         5.0,         5.0,
         2.0,         4.0,         3.0,         1.0,
         7.0,         4.0,         3.0,         4.0,
         2.0,         5.0,         4.0,         3.0,
         4.0,         5.0,         3.0,         2.0,
         2.0,         3.0,         4.0,         4.0,
         6.0,         3.0,         3.0,         4.0,
         4.0,         5.0,         4.0,         5.0,
         6.0,         5.0,         1.0,         4.0,
         3.0,         4.0,         2.0,         2.0,
         5.0,         5.0,         4.0,         2.0,
         2.0,         2.0,         5.0,         4.0,
         4.0,         2.0,         3.0,         2.0,
         5.0,         5.0,         4.0,         4.0,
         4.0,         4.0,         3.0,         4.0,
         3.0,         2.0,         2.0,         6.0,
         2.0,         3.0,         4.0,         5.0,
         2.0,         2.0,         2.0,         3.0,
         3.0,         4.0,         2.0,         3.0,
         4.0,         2.0,         1.0,         3.0,
         1.0,         2.0,         3.0,         2.0,
         2.0,         3.0,         2.0,         3.0,
         3.0,         1.0,         1.0,         2.0,
         1.0,         2.0,         1.0,         2.0,
         0.0,         0.0,         2.0,         2.0,
         0.0,         1.0,         2.0,         1.0,
         5.0,         1.0,         2.0,         3.0,
         7.0,         3.0,         2.0,         3.0,
         2.0,         3.0,         2.0,         2.0,
         3.0,         1.0,         2.0,         3.0,
         1.0,         3.0,         4.0,         2.0,
         3.0,         3.0,         4.0,         3.0,
         1.0,         1.0,         2.0,         3.0,
         3.0,         2.0,         1.0,         0.0,
         2.0,         3.0,         4.0,         4.0,
         2.0,         2.0,         3.0,         4.0,
         2.0,         2.0,         3.0,         1.0,
         1.0,         3.0,         2.0,         4.0,
         2.0,         3.0,         4.0,         2.0,
         3.0,         1.0,         2.0,         1.0,
         1.0,         1.0,         2.0,         2.0,
         2.0,         1.0,         2.0,         2.0,
         0.0,         2.0,         1.0,         1.0,
         3.0,         2.0,         2.0,         3.0,
         2.0,         3.0,         2.0,         1.0,
         1.0,         2.0,         4.0,         3.0,
         2.0,         1.0,         4.0,         2.0,
         2.0,         2.0,         2.0,         2.0,
         1.0,         1.0,         2.0,         3.0,
         1.0,         0.0,         0.0,         3.0,
         1.0,         0.0,         2.0,         2.0,
         1.0,         3.0,         5.0,         4.0,
         0.0,         1.0,         1.0,         0.0,
         0.0,         2.0,         0.0,         2.0,
         1.0,         2.0,         0.0,         2.0,
         3.0,         3.0,         1.0,         2.0,
         1.0,         1.0,         1.0,         0.0,
         1.0,         2.0,         1.0,         3.0,
         2.0,         3.0,         1.0,         0.0,
         1.0,         2.0,         3.0,         1.0,
         3.0,         5.0,         2.0,         1.0,
         1.0,         0.0,         1.0,         1.0,
         1.0,         2.0,         2.0,         0.0,
         2.0,         2.0,         2.0,         0.0,
         2.0,         1.0,         0.0,         1.0,
         3.0,         1.0,         1.0,         0.0,
         0.0,         2.0,         1.0,         0.0,
         1.0,         1.0,         1.0,         0.0,
         1.0,         2.0,         0.0,         1.0,
         0.0,         1.0,         1.0,         1.0,
         3.0,         1.0,         1.0,         2.0,
         0.0,         2.0,         1.0,         2.0,
         0.0,         1.0,         1.0,         3.0,
         2.0,         2.0,         0.0,         1.0,
         2.0,         1.0,         1.0,         1.0,
         1.0,         1.0,         1.0,         0.0,
         0.0,         1.0,         0.0,         1.0,
         2.0,         1.0,         0.0,         0.0,
         0.0,         0.0,         0.0,         0.0,
         1.0,         1.0,         1.0,         0.0,
         2.0,         1.0,         1.0,         0.0,
         1.0,         0.0,         1.0,         2.0,
         0.0,         0.0,         2.0,         0.0,
         0.0,         0.0,         2.0,         0.0,
         2.0,         2.0,         1.0,         0.0,
         0.0,         1.0,         1.0,         0.0,
         0.0,         1.0,         0.0,         1.0,
         0.0,         1.0,         1.0,         0.0,
         0.0,         2.0,         1.0,         1.0,
         0.0,         1.0,         0.0,         0.0,
         0.0,         0.0,         1.0,         1.0,
         0.0,         1.0,         1.0,         1.0,
         0.0,         0.0,         0.0,         1.0,
         1.0,         0.0,         0.0,         0.0,
         0.0,         0.0,         0.0,         0.0,
         0.0,         0.0,         1.0,         0.0,
         0.0,         0.0,         0.0,         0.0,
         0.0,         2.0,         0.0,         0.0,
         2.0,         1.0,         1.0,         0.0,
         0.0,         1.0,         1.0,         0.0,
         1.0,         0.0,         1.0,         1.0,
         1.0,         0.0,         0.0,         0.0,
         0.0,         1.0,         0.0,         1.0,
         0.0,         0.0,         0.0,         0.0,
         0.0,         2.0,         1.0,         1.0,
         1.0,         1.0,         1.0,         0.0,
         0.0,         0.0,         1.0,         0.0,
         0.0,         1.0,         0.0,         0.0,
         0.0,         0.0,         0.0,         0.0,
         0.0,         0.0,         0.0,         0.0,
         0.0,         0.0,         0.0,         0.0,
         0.0,         0.0,         1.0,         0.0,
         1.0,         0.0,         0.0,         1.0,
         0.0,         0.0,         0.0,         0.0,
         0.0,         0.0,         2.0,         0.0,
         1.0,         0.0,         0.0,         1.0,
         0.0,         0.0,         0.0,         0.0,
         1.0,         1.0,         0.0,         0.0,
         0.0,         0.0,         0.0,         0.0,
         0.0,         0.0,         0.0,         0.0,
         0.0,         1.0,         1.0,         0.0,
         1.0,         0.0,         0.0,         0.0,
         0.0,         0.0,         1.0,         0.0,
         0.0,         0.0,         1.0,         0.0,
         1.0,         0.0,         0.0,         0.0,
         0.0,         0.0,         1.0,         0.0,
         1.0,         0.0,         0.0,         0.0,
         0.0,         0.0,         0.0,         2.0,
         0.0,         0.0,         2.0,         0.0,
         0.0,         1.0,         0.0,         0.0,
         2.0,         0.0,         0.0,         1.0,
         0.0,         0.0,         0.0,         0.0,
         0.0,         0.0,         0.0,         0.0,
         1.0,         0.0,         1.0,         0.0,
         1.0,         0.0,         0.0,         0.0,
         0.0,         0.0,         0.0,         0.0,
         1.0,         0.0,         0.0,         0.0,
         0.0,         0.0,         1.0,         1.0,
         0.0,         0.0,         0.0,         0.0,
         0.0,         0.0,         0.0,         1.0,
         1.0,         0.0,         0.0,         1.0,
         1.0,         0.0,         0.0,         0.0,
         0.0,         0.0,         0.0,         0.0,
         0.0,         1.0,         1.0,         0.0,
         0.0,         0.0,         0.0,         0.0,
         1.0,         1.0,         1.0,         0.0,
         0.0,         0.0,         0.0,         0.0,
         0.0,         1.0,         2.0,         0.0,
         1.0,         0.0,         0.0,         0.0,
         0.0,         0.0,         1.0,         0.0,
         0.0,         0.0,         0.0,         0.0,
         1.0,         0.0,         0.0,         0.0,
         0.0,         0.0,         2.0,         1.0,
         0.0,         0.0,         0.0,         0.0,
         0.0,         0.0,         0.0,         0.0,
         0.0,         0.0,         0.0,         0.0,
         0.0,         1.0,         0.0,         0.0,
         0.0,         0.0,         0.0,         0.0,
         1.0,         0.0,         0.0,         0.0,
         0.0,         0.0,         0.0,         0.0,
         0.0,         0.0,         0.0,         0.0,
         0.0,         0.0,         0.0,         0.0,
         0.0,         0.0,         0.0,         0.0,
         1.0,         1.0,         0.0,         1.0,
         0.0,         0.0,         0.0,         1.0,
         0.0,         1.0,         0.0,         0.0,
         0.0,         0.0,         0.0,         0.0,
         0.0,         0.0,         0.0,         1.0,
         0.0,         0.0,         0.0,         0.0,
         0.0,         1.0,         0.0,         0.0,
         0.0,         0.0,         0.0,         0.0,
         0.0,         1.0,         0.0,         1.0,
         1.0,         0.0,         0.0,         0.0,
         0.0,         0.0,         0.0,         0.0,
         0.0,         0.0,         0.0,         0.0,
#ENDOFDATA   :