File: weave/XRF Stainless/Si_50kv_50_ma_Rh_vac_D1.msa
#FORMAT      : EMSA/MAS SPECTRAL DATA FILE
#VERSION     : 1.0
#TITLE       : Bruker AXS spectrum Si_50kv_50_ma_Rh_vac_D1.txt
#DATE        : 19-NOV-2019
#TIME        : 11:27
#OWNER       : Bruker AXS
#NPOINTS     : 4096.0
#NCOLUMNS    : 4.0
#XUNITS      : keV
#YUNITS      : Counts
#DATATYPE    : Y
#XPERCHAN    : 0.0099990
#OFFSET      : -0.9553045
#SIGNALTYPE  : EDS
#CHOFFSET    : 96
#LIVETIME  -s: 119.986
#REALTIME  -s: 121.022
##RTDET      : XFlash 430
#EDSDET      :
#TDEADLYR -cm: 0.000003
#TACTLYR  -cm: 0.045
##FANO       : 0.1135598
##MNFWHM -keV: 0.1438463
##IDENT      : FeNiSiTiCrCuAsRhSnZrS
#SPECTRUM    :
         0.0,         0.0,         0.0,         0.0,
         0.0,         0.0,         0.0,         0.0,
         0.0,         0.0,         0.0,         0.0,
         0.0,         0.0,         0.0,         0.0,
         0.0,         0.0,         0.0,         0.0,
         0.0,         0.0,         0.0,         0.0,
         0.0,         0.0,         0.0,         0.0,
         0.0,         0.0,         0.0,         0.0,
         0.0,         0.0,         0.0,         0.0,
         1.0,         0.0,         0.0,         2.0,
         2.0,         8.0,        18.0,        79.0,
      9532.0,     19060.0,     33776.0,     55147.0,
    147055.0,    134015.0,    110256.0,     82414.0,
      4509.0,      1934.0,       741.0,       251.0,
         1.0,         1.0,         1.0,         0.0,
         0.0,         0.0,         0.0,         0.0,
         0.0,         0.0,         0.0,         6.0,
        25.0,        17.0,        27.0,        34.0,
        31.0,        28.0,        29.0,        27.0,
        28.0,        28.0,        23.0,        12.0,
        15.0,        18.0,        22.0,        24.0,
        29.0,        14.0,        23.0,        24.0,
        19.0,        26.0,        20.0,        21.0,
        21.0,        14.0,        25.0,        25.0,
        12.0,        18.0,        26.0,        23.0,
        16.0,        20.0,        18.0,        30.0,
        23.0,        23.0,        22.0,        26.0,
        25.0,        28.0,        34.0,        31.0,
        37.0,        29.0,        31.0,        34.0,
        56.0,        56.0,        58.0,        55.0,
       103.0,        95.0,       108.0,       111.0,
       167.0,       172.0,       166.0,       173.0,
       431.0,       690.0,      1212.0,      1992.0,
     16476.0,     21873.0,     27337.0,     32224.0,
     33104.0,     28405.0,     23277.0,     18134.0,
      3628.0,      2665.0,      1931.0,      1384.0,
       219.0,       123.0,        82.0,        51.0,
         7.0,         7.0,         7.0,         6.0,
         6.0,         5.0,         3.0,         6.0,
         6.0,         6.0,         5.0,         4.0,
         4.0,         5.0,         6.0,         6.0,
         8.0,        10.0,        12.0,        13.0,
         5.0,         8.0,        10.0,         9.0,
         5.0,         7.0,         5.0,         7.0,
         6.0,         7.0,         7.0,        12.0,
        14.0,        26.0,        33.0,        33.0,
        25.0,        29.0,        30.0,        34.0,
        26.0,        24.0,        26.0,        25.0,
        22.0,        21.0,        23.0,        21.0,
        12.0,        20.0,        18.0,        16.0,
        13.0,         8.0,         5.0,         6.0,
         3.0,         4.0,         5.0,         7.0,
         6.0,         6.0,         5.0,         5.0,
         5.0,         4.0,         2.0,         6.0,
         8.0,         8.0,        10.0,        11.0,
        21.0,        20.0,        15.0,        11.0,
         5.0,         1.0,         2.0,         2.0,
         1.0,         0.0,         0.0,         5.0,
         7.0,         5.0,        11.0,         7.0,
         5.0,         8.0,         3.0,         1.0,
         3.0,         4.0,         9.0,         4.0,
         6.0,         5.0,         6.0,         7.0,
         5.0,         6.0,         9.0,        11.0,
         4.0,         4.0,         5.0,         8.0,
         4.0,         3.0,         1.0,         2.0,
         3.0,         7.0,         4.0,         4.0,
         6.0,         6.0,         7.0,         5.0,
         5.0,         7.0,         6.0,         4.0,
         4.0,         4.0,         2.0,         6.0,
         5.0,         3.0,         6.0,         8.0,
         7.0,         6.0,         5.0,         4.0,
         9.0,         7.0,         7.0,         7.0,
         6.0,         7.0,         7.0,         7.0,
         8.0,         9.0,         8.0,         8.0,
         8.0,         6.0,         4.0,         8.0,
         8.0,        16.0,        10.0,        10.0,
        13.0,        10.0,         7.0,         7.0,
        37.0,        40.0,        51.0,        55.0,
       196.0,       213.0,       256.0,       294.0,
       514.0,       589.0,       636.0,       676.0,
       860.0,       876.0,       940.0,       988.0,
      1021.0,       996.0,       973.0,       971.0,
       838.0,       825.0,       820.0,       750.0,
       589.0,       541.0,       487.0,       418.0,
       273.0,       243.0,       192.0,       165.0,
        67.0,        62.0,        51.0,        45.0,
        30.0,        30.0,        28.0,        28.0,
        31.0,        29.0,        23.0,        25.0,
        30.0,        23.0,        23.0,        29.0,
        24.0,        30.0,        22.0,        34.0,
        29.0,        28.0,        29.0,        28.0,
        23.0,        26.0,        24.0,        30.0,
        27.0,        28.0,        21.0,        25.0,
        29.0,        24.0,        27.0,        26.0,
        31.0,        28.0,        28.0,        29.0,
        28.0,        26.0,        23.0,        31.0,
        22.0,        23.0,        29.0,        34.0,
        32.0,        39.0,        33.0,        27.0,
        39.0,        38.0,        31.0,        37.0,
        30.0,        35.0,        43.0,        39.0,
        32.0,        31.0,        44.0,        45.0,
        41.0,        31.0,        35.0,        39.0,
        37.0,        33.0,        35.0,        37.0,
        38.0,        49.0,        54.0,        49.0,
        51.0,        45.0,        46.0,        57.0,
        61.0,        54.0,        50.0,        62.0,
        50.0,        54.0,        55.0,        53.0,
        59.0,        53.0,        47.0,        56.0,
        51.0,        52.0,        54.0,        45.0,
        46.0,        44.0,        61.0,        50.0,
        52.0,        60.0,        65.0,        63.0,
        50.0,        58.0,        63.0,        59.0,
        60.0,        51.0,        49.0,        57.0,
        53.0,        56.0,        65.0,        63.0,
        64.0,        62.0,        60.0,        64.0,
        50.0,        62.0,        68.0,        64.0,
        70.0,        72.0,        68.0,        71.0,
        73.0,        74.0,        77.0,        78.0,
        66.0,        65.0,        74.0,        84.0,
        75.0,        75.0,        73.0,        83.0,
        86.0,        81.0,        84.0,        89.0,
       104.0,        96.0,        99.0,        85.0,
        87.0,        98.0,       110.0,       109.0,
       120.0,       114.0,       112.0,       114.0,
       118.0,       105.0,       108.0,       110.0,
       140.0,       122.0,       136.0,       133.0,
       146.0,       136.0,       132.0,       131.0,
       155.0,       148.0,       136.0,       159.0,
       128.0,       137.0,       145.0,       147.0,
       146.0,       142.0,       159.0,       153.0,
       159.0,       162.0,       161.0,       154.0,
       159.0,       159.0,       166.0,       166.0,
       174.0,       162.0,       161.0,       184.0,
       189.0,       212.0,       218.0,       202.0,
       212.0,       219.0,       207.0,       211.0,
       216.0,       226.0,       226.0,       211.0,
       215.0,       227.0,       218.0,       202.0,
       187.0,       176.0,       200.0,       206.0,
       191.0,       166.0,       159.0,       160.0,
       147.0,       139.0,       147.0,       143.0,
       137.0,       129.0,       120.0,       144.0,
       138.0,       134.0,       130.0,       115.0,
       117.0,       126.0,       127.0,       131.0,
       118.0,       121.0,       129.0,       118.0,
       133.0,       130.0,       116.0,       109.0,
       109.0,       126.0,       143.0,       126.0,
       113.0,       119.0,       112.0,       105.0,
       118.0,       108.0,       104.0,       102.0,
       112.0,       120.0,       128.0,       118.0,
       116.0,       106.0,       114.0,       117.0,
       115.0,       113.0,       116.0,       113.0,
       132.0,       122.0,       124.0,       123.0,
       126.0,       121.0,       124.0,       131.0,
       125.0,       129.0,       128.0,       139.0,
       133.0,       122.0,       118.0,       119.0,
       128.0,       130.0,       128.0,       117.0,
       128.0,       127.0,       121.0,       138.0,
       132.0,       130.0,       124.0,       120.0,
       135.0,       127.0,       125.0,       125.0,
       142.0,       154.0,       152.0,       156.0,
       134.0,       138.0,       135.0,       129.0,
       150.0,       144.0,       143.0,       150.0,
       146.0,       145.0,       142.0,       139.0,
       152.0,       146.0,       128.0,       132.0,
       143.0,       150.0,       163.0,       156.0,
       156.0,       148.0,       146.0,       148.0,
       140.0,       134.0,       131.0,       134.0,
       165.0,       159.0,       146.0,       151.0,
       163.0,       169.0,       162.0,       146.0,
       189.0,       171.0,       177.0,       196.0,
       187.0,       185.0,       209.0,       226.0,
       193.0,       207.0,       209.0,       221.0,
       238.0,       249.0,       245.0,       234.0,
       255.0,       246.0,       265.0,       259.0,
       260.0,       271.0,       275.0,       276.0,
       253.0,       252.0,       247.0,       256.0,
       228.0,       246.0,       264.0,       255.0,
       246.0,       244.0,       232.0,       229.0,
       222.0,       212.0,       203.0,       211.0,
       204.0,       197.0,       207.0,       205.0,
       176.0,       176.0,       180.0,       161.0,
       156.0,       153.0,       161.0,       133.0,
       136.0,       155.0,       153.0,       131.0,
       141.0,       144.0,       136.0,       138.0,
       143.0,       129.0,       123.0,       105.0,
       118.0,       102.0,       110.0,       117.0,
        93.0,       110.0,       114.0,       117.0,
       113.0,       111.0,       103.0,       106.0,
       101.0,        99.0,       112.0,       110.0,
       106.0,       104.0,       112.0,        96.0,
       108.0,        98.0,        93.0,        98.0,
       110.0,       112.0,       111.0,       100.0,
       103.0,       110.0,       102.0,       102.0,
       106.0,       100.0,       109.0,       109.0,
        99.0,       100.0,       115.0,       123.0,
       121.0,       107.0,       108.0,       108.0,
       121.0,       122.0,       120.0,       110.0,
       122.0,       114.0,       116.0,       121.0,
       112.0,       130.0,       125.0,       125.0,
       138.0,       136.0,       140.0,       140.0,
       141.0,       151.0,       150.0,       152.0,
       163.0,       146.0,       166.0,       151.0,
       153.0,       162.0,       152.0,       164.0,
       162.0,       158.0,       154.0,       145.0,
       159.0,       146.0,       161.0,       138.0,
       150.0,       149.0,       137.0,       151.0,
       141.0,       143.0,       139.0,       135.0,
       139.0,       136.0,       136.0,       130.0,
       131.0,       129.0,       110.0,       114.0,
       113.0,       103.0,       113.0,       121.0,
       102.0,       110.0,        99.0,       109.0,
       118.0,        97.0,       109.0,       112.0,
        99.0,       100.0,       100.0,       102.0,
        85.0,       101.0,       103.0,       101.0,
        95.0,       103.0,        87.0,        87.0,
        75.0,        91.0,       106.0,        92.0,
        99.0,        93.0,        88.0,        95.0,
        85.0,        96.0,        94.0,        94.0,
       103.0,        82.0,        91.0,        80.0,
       120.0,       107.0,        84.0,        91.0,
        78.0,        99.0,        83.0,        84.0,
        85.0,        88.0,        77.0,        78.0,
        78.0,        78.0,        82.0,        84.0,
        77.0,        75.0,        71.0,        69.0,
        75.0,        83.0,        67.0,        57.0,
        78.0,        68.0,        55.0,        69.0,
        64.0,        70.0,        73.0,        79.0,
        71.0,        75.0,        63.0,        77.0,
        62.0,        75.0,        71.0,        72.0,
        81.0,        60.0,        72.0,        76.0,
        72.0,        67.0,        71.0,        67.0,
        78.0,        85.0,        79.0,        69.0,
        83.0,        69.0,        72.0,        82.0,
        75.0,        78.0,        83.0,        88.0,
        84.0,        85.0,        84.0,       100.0,
        78.0,        85.0,        87.0,        76.0,
        98.0,        85.0,        88.0,        85.0,
        92.0,        90.0,       111.0,       114.0,
       116.0,        99.0,        96.0,       111.0,
       101.0,        76.0,       104.0,       104.0,
        95.0,       115.0,       124.0,       119.0,
       134.0,       128.0,       134.0,       132.0,
       123.0,       156.0,       139.0,       146.0,
       138.0,       130.0,       150.0,       155.0,
       178.0,       160.0,       188.0,       191.0,
       170.0,       203.0,       202.0,       209.0,
       240.0,       273.0,       270.0,       261.0,
       307.0,       343.0,       320.0,       319.0,
       309.0,       331.0,       314.0,       323.0,
       348.0,       351.0,       372.0,       351.0,
       332.0,       322.0,       293.0,       342.0,
       297.0,       292.0,       269.0,       251.0,
       234.0,       205.0,       179.0,       225.0,
       187.0,       159.0,       156.0,       144.0,
       164.0,       161.0,       144.0,       150.0,
       126.0,       108.0,       133.0,       141.0,
        95.0,       110.0,       116.0,       118.0,
       107.0,        99.0,        97.0,       118.0,
        85.0,        95.0,        83.0,        95.0,
        63.0,        73.0,        87.0,        74.0,
        83.0,        75.0,        70.0,        77.0,
        93.0,        99.0,        74.0,        96.0,
       114.0,        98.0,       133.0,       157.0,
       182.0,       182.0,       165.0,       195.0,
       174.0,       176.0,       188.0,       191.0,
       171.0,       148.0,       174.0,       133.0,
       104.0,        92.0,       102.0,        93.0,
        73.0,        76.0,        47.0,        74.0,
        40.0,        40.0,        48.0,        42.0,
        48.0,        45.0,        38.0,        34.0,
        39.0,        41.0,        45.0,        50.0,
        56.0,        42.0,        51.0,        53.0,
        43.0,        42.0,        44.0,        39.0,
        49.0,        61.0,        54.0,        58.0,
        59.0,        60.0,        62.0,        53.0,
        66.0,        55.0,        57.0,        72.0,
        71.0,        61.0,        56.0,        58.0,
        67.0,        50.0,        60.0,        79.0,
        72.0,        60.0,        64.0,        60.0,
        46.0,        57.0,        58.0,        62.0,
        54.0,        45.0,        50.0,        50.0,
        47.0,        49.0,        37.0,        55.0,
        36.0,        34.0,        40.0,        34.0,
        31.0,        34.0,        43.0,        34.0,
        29.0,        41.0,        34.0,        38.0,
        35.0,        27.0,        32.0,        27.0,
        26.0,        28.0,        28.0,        32.0,
        26.0,        27.0,        27.0,        38.0,
        25.0,        31.0,        21.0,        26.0,
        14.0,        17.0,        30.0,        24.0,
        27.0,        20.0,        11.0,        17.0,
        24.0,        17.0,        17.0,        14.0,
        27.0,        26.0,        15.0,        25.0,
        19.0,        14.0,        24.0,        22.0,
        27.0,        21.0,        36.0,        27.0,
        26.0,        33.0,        23.0,        37.0,
        37.0,        36.0,        33.0,        42.0,
        32.0,        28.0,        24.0,        24.0,
        19.0,        15.0,        15.0,        25.0,
        16.0,        14.0,        12.0,        10.0,
        17.0,        15.0,        12.0,        18.0,
        14.0,        14.0,        15.0,        14.0,
        17.0,        13.0,        13.0,        12.0,
        14.0,         9.0,        10.0,         9.0,
        16.0,         9.0,         9.0,        13.0,
         7.0,        10.0,         8.0,        13.0,
        12.0,         7.0,        14.0,        11.0,
        11.0,         8.0,         9.0,         6.0,
        10.0,         6.0,         9.0,        13.0,
        14.0,         9.0,        10.0,         5.0,
        11.0,        13.0,        15.0,         8.0,
        11.0,        10.0,        14.0,        14.0,
         8.0,        13.0,         8.0,         9.0,
        11.0,        11.0,        11.0,        11.0,
        10.0,         8.0,         9.0,        11.0,
         6.0,         6.0,         7.0,        11.0,
         8.0,         6.0,        12.0,         8.0,
        14.0,         7.0,        10.0,         8.0,
         8.0,        12.0,         9.0,         9.0,
        12.0,         7.0,        10.0,        11.0,
         6.0,        11.0,        12.0,         8.0,
         9.0,        10.0,        11.0,        10.0,
         8.0,         7.0,        10.0,        12.0,
        14.0,         8.0,         6.0,         7.0,
        12.0,         6.0,         3.0,         6.0,
         7.0,        10.0,         8.0,         5.0,
        10.0,         8.0,         8.0,         9.0,
         6.0,        11.0,         8.0,         8.0,
         7.0,        11.0,         8.0,         7.0,
        13.0,        11.0,         7.0,        11.0,
         6.0,         6.0,         3.0,         9.0,
         5.0,         9.0,         8.0,         8.0,
         7.0,         4.0,         7.0,         9.0,
         8.0,         6.0,         5.0,         6.0,
         7.0,         7.0,         8.0,         5.0,
         5.0,         3.0,         6.0,         4.0,
         7.0,         7.0,         5.0,         7.0,
         5.0,         7.0,         6.0,         6.0,
         5.0,         4.0,         8.0,        10.0,
         6.0,         5.0,         5.0,         9.0,
         4.0,         4.0,         5.0,         5.0,
         7.0,         4.0,         7.0,         5.0,
         7.0,         6.0,         4.0,         5.0,
         3.0,         6.0,         8.0,         3.0,
         5.0,         3.0,         2.0,         6.0,
         6.0,         8.0,         6.0,         4.0,
         6.0,         7.0,         5.0,         5.0,
         7.0,         5.0,         5.0,         5.0,
         3.0,         4.0,         3.0,         6.0,
         4.0,         4.0,         3.0,         4.0,
         2.0,         3.0,         4.0,         6.0,
         3.0,         4.0,         3.0,         4.0,
         6.0,         5.0,         6.0,         2.0,
         2.0,         3.0,         5.0,         4.0,
         4.0,         7.0,         4.0,         7.0,
         1.0,         7.0,         4.0,         3.0,
         5.0,         5.0,         3.0,         6.0,
         3.0,         4.0,         2.0,         3.0,
         5.0,         5.0,         3.0,         6.0,
         5.0,         4.0,         5.0,         5.0,
         1.0,         1.0,         1.0,         2.0,
         2.0,         4.0,         4.0,         5.0,
         2.0,         4.0,         3.0,         1.0,
         2.0,         5.0,         3.0,         2.0,
         4.0,         4.0,         3.0,         4.0,
         4.0,         3.0,         6.0,         5.0,
         4.0,         3.0,         4.0,         3.0,
         5.0,         6.0,         4.0,         4.0,
         3.0,         4.0,         3.0,         4.0,
         4.0,         4.0,         2.0,         6.0,
         3.0,         2.0,         2.0,         3.0,
         1.0,         2.0,         1.0,         3.0,
         0.0,         6.0,         5.0,         5.0,
         2.0,         4.0,         3.0,         2.0,
         5.0,         3.0,         6.0,         4.0,
         1.0,         1.0,         3.0,         2.0,
         5.0,         2.0,         3.0,         3.0,
         4.0,         3.0,         4.0,         3.0,
         4.0,         2.0,         3.0,         3.0,
         3.0,         3.0,         2.0,         1.0,
         2.0,         3.0,         3.0,         4.0,
         1.0,         2.0,         2.0,         0.0,
         2.0,         1.0,         2.0,         1.0,
         2.0,         1.0,         2.0,         2.0,
         4.0,         5.0,         1.0,         1.0,
         3.0,         4.0,         3.0,         1.0,
         0.0,         1.0,         3.0,         3.0,
         1.0,         2.0,         4.0,         2.0,
         0.0,         1.0,         2.0,         3.0,
         1.0,         2.0,         2.0,         4.0,
         3.0,         4.0,         3.0,         1.0,
         1.0,         1.0,         1.0,         2.0,
         4.0,         2.0,         1.0,         2.0,
         2.0,         3.0,         3.0,         4.0,
         4.0,         1.0,         2.0,         0.0,
         1.0,         1.0,         3.0,         1.0,
         1.0,         2.0,         3.0,         1.0,
         2.0,         1.0,         0.0,         2.0,
         2.0,         1.0,         2.0,         5.0,
         1.0,         3.0,         2.0,         1.0,
         0.0,         2.0,         1.0,         2.0,
         1.0,         3.0,         2.0,         2.0,
         0.0,         1.0,         2.0,         1.0,
         2.0,         3.0,         4.0,         5.0,
         0.0,         2.0,         2.0,         1.0,
         3.0,         1.0,         1.0,         1.0,
         1.0,         2.0,         3.0,         2.0,
         1.0,         1.0,         3.0,         3.0,
         0.0,         2.0,         2.0,         1.0,
         1.0,         0.0,         2.0,         3.0,
         1.0,         0.0,         0.0,         2.0,
         1.0,         0.0,         1.0,         2.0,
         1.0,         2.0,         1.0,         0.0,
         1.0,         1.0,         2.0,         1.0,
         2.0,         1.0,         2.0,         0.0,
         2.0,         2.0,         1.0,         3.0,
         1.0,         1.0,         0.0,         0.0,
         2.0,         3.0,         1.0,         1.0,
         2.0,         4.0,         2.0,         1.0,
         1.0,         1.0,         2.0,         2.0,
         2.0,         0.0,         2.0,         1.0,
         0.0,         0.0,         0.0,         0.0,
         0.0,         2.0,         0.0,         0.0,
         0.0,         0.0,         0.0,         0.0,
         2.0,         0.0,         2.0,         0.0,
         3.0,         1.0,         2.0,         1.0,
         1.0,         3.0,         2.0,         3.0,
         3.0,         1.0,         1.0,         1.0,
         3.0,         1.0,         0.0,         1.0,
         0.0,         1.0,         1.0,         1.0,
         0.0,         0.0,         2.0,         0.0,
         1.0,         0.0,         1.0,         0.0,
         1.0,         0.0,         0.0,         2.0,
         0.0,         2.0,         1.0,         0.0,
         0.0,         1.0,         1.0,         0.0,
         0.0,         1.0,         1.0,         0.0,
         1.0,         2.0,         1.0,         0.0,
         0.0,         2.0,         0.0,         2.0,
         2.0,         2.0,         0.0,         2.0,
         0.0,         0.0,         0.0,         0.0,
         1.0,         1.0,         0.0,         1.0,
         1.0,         1.0,         0.0,         1.0,
         1.0,         2.0,         2.0,         0.0,
         0.0,         0.0,         0.0,         0.0,
         0.0,         1.0,         0.0,         1.0,
         0.0,         0.0,         2.0,         0.0,
         0.0,         2.0,         0.0,         1.0,
         0.0,         2.0,         0.0,         0.0,
         1.0,         0.0,         0.0,         1.0,
         0.0,         0.0,         0.0,         0.0,
         0.0,         1.0,         1.0,         0.0,
         1.0,         2.0,         0.0,         0.0,
         0.0,         0.0,         0.0,         0.0,
         0.0,         0.0,         1.0,         1.0,
         1.0,         0.0,         0.0,         1.0,
         0.0,         1.0,         0.0,         0.0,
         0.0,         0.0,         0.0,         3.0,
         0.0,         0.0,         0.0,         0.0,
         0.0,         0.0,         0.0,         0.0,
         0.0,         2.0,         0.0,         0.0,
         1.0,         0.0,         0.0,         1.0,
         1.0,         0.0,         1.0,         0.0,
         1.0,         0.0,         1.0,         0.0,
         0.0,         0.0,         0.0,         0.0,
         1.0,         0.0,         0.0,         0.0,
         1.0,         0.0,         2.0,         0.0,
         0.0,         0.0,         0.0,         0.0,
         3.0,         2.0,         0.0,         0.0,
         1.0,         1.0,         1.0,         0.0,
         0.0,         0.0,         1.0,         1.0,
         0.0,         0.0,         1.0,         1.0,
         1.0,         0.0,         0.0,         0.0,
         1.0,         0.0,         0.0,         0.0,
         0.0,         1.0,         1.0,         0.0,
         0.0,         1.0,         0.0,         1.0,
         1.0,         2.0,         1.0,         0.0,
         0.0,         0.0,         0.0,         0.0,
         0.0,         0.0,         0.0,         0.0,
         1.0,         0.0,         1.0,         1.0,
         0.0,         0.0,         0.0,         0.0,
         0.0,         0.0,         0.0,         0.0,
         0.0,         0.0,         0.0,         0.0,
         0.0,         1.0,         0.0,         0.0,
         0.0,         0.0,         0.0,         0.0,
         0.0,         1.0,         1.0,         0.0,
         1.0,         0.0,         0.0,         0.0,
         1.0,         0.0,         0.0,         0.0,
         1.0,         0.0,         0.0,         0.0,
         1.0,         0.0,         0.0,         1.0,
         0.0,         1.0,         3.0,         1.0,
         0.0,         0.0,         0.0,         0.0,
         0.0,         0.0,         0.0,         0.0,
         0.0,         0.0,         1.0,         0.0,
         1.0,         0.0,         0.0,         0.0,
         0.0,         1.0,         0.0,         0.0,
         0.0,         0.0,         0.0,         0.0,
         0.0,         0.0,         0.0,         0.0,
         0.0,         0.0,         0.0,         0.0,
         1.0,         0.0,         0.0,         0.0,
         0.0,         0.0,         1.0,         0.0,
         0.0,         0.0,         0.0,         0.0,
         0.0,         1.0,         0.0,         0.0,
         0.0,         1.0,         0.0,         0.0,
         0.0,         0.0,         0.0,         0.0,
         0.0,         0.0,         0.0,         0.0,
         0.0,         0.0,         0.0,         0.0,
         0.0,         0.0,         0.0,         0.0,
         0.0,         0.0,         0.0,         0.0,
         0.0,         0.0,         1.0,         0.0,
         0.0,         0.0,         0.0,         0.0,
         0.0,         0.0,         0.0,         0.0,
         0.0,         0.0,         0.0,         0.0,
         0.0,         0.0,         0.0,         0.0,
#ENDOFDATA   :