File: weave/XRF Stainless/Ti_50kv_50_ma_Rh_vac_D1.msa
#FORMAT      : EMSA/MAS SPECTRAL DATA FILE
#VERSION     : 1.0
#TITLE       : Bruker AXS spectrum Ti_50kv_50_ma_Rh_vac_D1.txt
#DATE        : 19-NOV-2019
#TIME        : 11:46
#OWNER       : Bruker AXS
#NPOINTS     : 4096.0
#NCOLUMNS    : 4.0
#XUNITS      : keV
#YUNITS      : Counts
#DATATYPE    : Y
#XPERCHAN    : 0.0099990
#OFFSET      : -0.9553045
#SIGNALTYPE  : EDS
#CHOFFSET    : 96
#LIVETIME  -s: 120.012
#REALTIME  -s: 128.039
##RTDET      : XFlash 430
#EDSDET      :
#TDEADLYR -cm: 0.000003
#TACTLYR  -cm: 0.045
##FANO       : 0.1135598
##MNFWHM -keV: 0.1439478
##IDENT      :
#SPECTRUM    :
         0.0,         0.0,         0.0,         0.0,
         0.0,         0.0,         0.0,         0.0,
         0.0,         0.0,         0.0,         0.0,
         0.0,         0.0,         0.0,         0.0,
         0.0,         0.0,         0.0,         0.0,
         0.0,         0.0,         0.0,         0.0,
         0.0,         0.0,         0.0,         0.0,
         0.0,         0.0,         0.0,         0.0,
         0.0,         0.0,         0.0,         0.0,
         6.0,         5.0,         5.0,         5.0,
         5.0,         9.0,        22.0,        76.0,
      9611.0,     18904.0,     33890.0,     55390.0,
    146848.0,    133827.0,    110158.0,     82723.0,
      4506.0,      1967.0,       758.0,       245.0,
         2.0,         2.0,         1.0,         1.0,
         0.0,         0.0,         0.0,         0.0,
        -3.0,        -1.0,         1.0,         6.0,
        30.0,        29.0,        29.0,        32.0,
        23.0,        25.0,        30.0,        23.0,
        38.0,        35.0,        30.0,        17.0,
        31.0,        22.0,        27.0,        28.0,
        15.0,        27.0,        27.0,        31.0,
        21.0,        25.0,        31.0,        26.0,
        27.0,        30.0,        25.0,        24.0,
        20.0,        16.0,        23.0,        37.0,
        28.0,        22.0,        20.0,        26.0,
        33.0,        34.0,        28.0,        26.0,
        32.0,        30.0,        23.0,        23.0,
        30.0,        41.0,        41.0,        29.0,
        33.0,        35.0,        35.0,        32.0,
        51.0,        41.0,        45.0,        48.0,
        35.0,        37.0,        34.0,        27.0,
        35.0,        41.0,        36.0,        32.0,
        76.0,        95.0,       113.0,       136.0,
       146.0,       127.0,       109.0,        89.0,
        60.0,        53.0,        47.0,        57.0,
        58.0,        58.0,        50.0,        56.0,
        49.0,        45.0,        46.0,        52.0,
        59.0,        64.0,        62.0,        55.0,
        62.0,        65.0,        56.0,        69.0,
        60.0,        50.0,        66.0,        73.0,
        68.0,        71.0,        74.0,        69.0,
        62.0,        62.0,        60.0,        63.0,
        62.0,        73.0,        83.0,        75.0,
        81.0,        87.0,       112.0,       163.0,
       489.0,       609.0,       646.0,       723.0,
       686.0,       651.0,       582.0,       605.0,
       565.0,       535.0,       571.0,       619.0,
       438.0,       463.0,       428.0,       420.0,
       502.0,       514.0,       550.0,       555.0,
       445.0,       433.0,       409.0,       383.0,
       261.0,       244.0,       228.0,       238.0,
       176.0,       116.0,       130.0,       130.0,
       100.0,       109.0,        98.0,       109.0,
        91.0,       104.0,       120.0,       118.0,
       106.0,       109.0,       104.0,       111.0,
       117.0,       116.0,       134.0,       132.0,
       145.0,       145.0,       157.0,       145.0,
       180.0,       172.0,       181.0,       184.0,
       201.0,       188.0,       197.0,       208.0,
       235.0,       218.0,       224.0,       240.0,
       244.0,       249.0,       244.0,       216.0,
       192.0,       199.0,       195.0,       185.0,
       163.0,       172.0,       160.0,       159.0,
       206.0,       231.0,       219.0,       233.0,
       395.0,       428.0,       480.0,       587.0,
      1751.0,      2600.0,      3775.0,      5611.0,
     38253.0,     52534.0,     70164.0,     91345.0,
    208394.0,    223094.0,    231806.0,    232444.0,
    144937.0,    119566.0,     95214.0,     73987.0,
     13101.0,      8633.0,      5548.0,      3670.0,
      1028.0,      1023.0,      1094.0,      1267.0,
      3928.0,      5124.0,      6719.0,      8703.0,
     22974.0,     25663.0,     28415.0,     30160.0,
     26634.0,     23622.0,     20522.0,     17277.0,
      4660.0,      3188.0,      2198.0,      1512.0,
       161.0,        86.0,        55.0,        45.0,
        20.0,        20.0,        14.0,        19.0,
        27.0,        21.0,        31.0,        33.0,
        61.0,        57.0,        55.0,        56.0,
        85.0,        90.0,        90.0,       101.0,
        97.0,        85.0,       100.0,        95.0,
        96.0,        87.0,        76.0,        80.0,
        63.0,        60.0,        66.0,        64.0,
        54.0,        47.0,        47.0,        49.0,
        31.0,        30.0,        28.0,        35.0,
        23.0,        18.0,        23.0,        18.0,
        22.0,        16.0,        16.0,        14.0,
        17.0,        16.0,        19.0,        21.0,
        20.0,        21.0,        17.0,        21.0,
        18.0,        20.0,        18.0,        24.0,
        46.0,        44.0,        37.0,        41.0,
        59.0,        51.0,        48.0,        47.0,
        26.0,        23.0,        19.0,        15.0,
        13.0,        17.0,        15.0,        18.0,
        12.0,        16.0,        14.0,        11.0,
        22.0,        21.0,        17.0,        24.0,
        22.0,        23.0,        25.0,        24.0,
        29.0,        28.0,        29.0,        28.0,
        36.0,        29.0,        27.0,        29.0,
        41.0,        36.0,        34.0,        34.0,
        23.0,        31.0,        32.0,        30.0,
        38.0,        36.0,        33.0,        35.0,
        38.0,        39.0,        42.0,        41.0,
        43.0,        42.0,        44.0,        47.0,
        49.0,        52.0,        54.0,        64.0,
        58.0,        58.0,        60.0,        55.0,
        64.0,        55.0,        63.0,        50.0,
        62.0,        57.0,        60.0,        59.0,
        58.0,        49.0,        47.0,        60.0,
        50.0,        51.0,        41.0,        45.0,
        69.0,        60.0,        49.0,        52.0,
        69.0,        87.0,        88.0,        91.0,
       118.0,       113.0,       139.0,       148.0,
       163.0,       183.0,       184.0,       170.0,
       197.0,       190.0,       191.0,       228.0,
       212.0,       217.0,       221.0,       224.0,
       195.0,       199.0,       208.0,       229.0,
       213.0,       203.0,       213.0,       189.0,
       189.0,       182.0,       175.0,       191.0,
       161.0,       163.0,       148.0,       141.0,
       112.0,       103.0,       107.0,       113.0,
        76.0,        72.0,        57.0,        73.0,
        71.0,        56.0,        50.0,        50.0,
        70.0,        77.0,        81.0,        70.0,
        42.0,        45.0,        48.0,        44.0,
        40.0,        51.0,        58.0,        61.0,
        56.0,        49.0,        38.0,        38.0,
        41.0,        40.0,        41.0,        43.0,
        45.0,        49.0,        48.0,        43.0,
        44.0,        45.0,        47.0,        49.0,
        51.0,        58.0,        66.0,        66.0,
        52.0,        44.0,        62.0,        60.0,
        53.0,        57.0,        60.0,        52.0,
        51.0,        53.0,        58.0,        59.0,
        65.0,        68.0,        65.0,        64.0,
        71.0,        69.0,        67.0,        70.0,
        74.0,        75.0,        73.0,        74.0,
        67.0,        71.0,        71.0,        68.0,
        76.0,        76.0,        71.0,        70.0,
        66.0,        68.0,        63.0,        61.0,
        57.0,        58.0,        66.0,        65.0,
        77.0,        80.0,        80.0,        69.0,
        84.0,        74.0,        74.0,        68.0,
        80.0,        89.0,        88.0,        87.0,
        90.0,        89.0,        96.0,        92.0,
        94.0,       107.0,       106.0,       107.0,
       120.0,       100.0,       103.0,       116.0,
       128.0,       128.0,       126.0,       123.0,
       140.0,       147.0,       140.0,       132.0,
       147.0,       144.0,       149.0,       145.0,
       139.0,       134.0,       145.0,       142.0,
       132.0,       131.0,       132.0,       138.0,
       125.0,       125.0,       123.0,       123.0,
       123.0,       112.0,       115.0,       129.0,
       106.0,       113.0,        99.0,        89.0,
       102.0,       108.0,       112.0,       104.0,
        97.0,       102.0,       100.0,        82.0,
        96.0,        95.0,        95.0,       100.0,
        99.0,        86.0,        82.0,        83.0,
        92.0,        85.0,        81.0,        74.0,
        86.0,        84.0,        73.0,        74.0,
        81.0,        91.0,        83.0,        77.0,
        72.0,        74.0,        78.0,        89.0,
        77.0,        82.0,        93.0,        96.0,
       105.0,        94.0,        81.0,        94.0,
       106.0,       104.0,       100.0,       107.0,
       121.0,       122.0,       111.0,       115.0,
       115.0,       106.0,       105.0,       114.0,
       115.0,       115.0,       121.0,       108.0,
       109.0,       106.0,       108.0,       105.0,
       106.0,       105.0,        94.0,       103.0,
       102.0,       104.0,       104.0,        99.0,
        90.0,        83.0,        87.0,        84.0,
        86.0,        83.0,        77.0,        81.0,
        80.0,        72.0,        69.0,        66.0,
        67.0,        73.0,        66.0,        67.0,
        69.0,        60.0,        60.0,        69.0,
        63.0,        63.0,        73.0,        64.0,
        55.0,        54.0,        73.0,        75.0,
        54.0,        59.0,        64.0,        67.0,
        66.0,        62.0,        64.0,        59.0,
        80.0,        73.0,        76.0,        77.0,
        69.0,        72.0,        69.0,        68.0,
        69.0,        67.0,        65.0,        64.0,
        72.0,        64.0,        69.0,        66.0,
        71.0,        76.0,        64.0,        59.0,
        64.0,        72.0,        74.0,        60.0,
        68.0,        63.0,        66.0,        73.0,
        68.0,        67.0,        62.0,        57.0,
        47.0,        55.0,        55.0,        56.0,
        53.0,        70.0,        68.0,        59.0,
        59.0,        68.0,        68.0,        51.0,
        62.0,        46.0,        51.0,        56.0,
        58.0,        52.0,        57.0,        57.0,
        46.0,        48.0,        57.0,        53.0,
        53.0,        51.0,        53.0,        43.0,
        46.0,        46.0,        51.0,        50.0,
        52.0,        55.0,        51.0,        58.0,
        52.0,        49.0,        46.0,        52.0,
        59.0,        51.0,        49.0,        49.0,
        57.0,        64.0,        56.0,        48.0,
        48.0,        53.0,        65.0,        55.0,
        52.0,        60.0,        55.0,        65.0,
        52.0,        62.0,        55.0,        40.0,
        56.0,        49.0,        55.0,        60.0,
        50.0,        48.0,        54.0,        56.0,
        36.0,        41.0,        49.0,        46.0,
        51.0,        49.0,        53.0,        64.0,
        43.0,        44.0,        52.0,        45.0,
        48.0,        40.0,        46.0,        47.0,
        40.0,        45.0,        45.0,        48.0,
        40.0,        38.0,        41.0,        46.0,
        27.0,        37.0,        39.0,        37.0,
        43.0,        31.0,        29.0,        29.0,
        33.0,        39.0,        36.0,        36.0,
        35.0,        37.0,        32.0,        36.0,
        38.0,        35.0,        40.0,        47.0,
        39.0,        39.0,        35.0,        45.0,
        42.0,        46.0,        33.0,        45.0,
        38.0,        44.0,        42.0,        42.0,
        45.0,        39.0,        50.0,        32.0,
        39.0,        41.0,        30.0,        36.0,
        34.0,        29.0,        34.0,        41.0,
        29.0,        30.0,        31.0,        32.0,
        30.0,        40.0,        34.0,        43.0,
        30.0,        33.0,        36.0,        35.0,
        24.0,        33.0,        33.0,        28.0,
        27.0,        28.0,        33.0,        30.0,
        27.0,        30.0,        26.0,        39.0,
        36.0,        30.0,        28.0,        28.0,
        25.0,        21.0,        27.0,        32.0,
        35.0,        28.0,        29.0,        39.0,
        25.0,        32.0,        33.0,        38.0,
        34.0,        37.0,        34.0,        35.0,
        35.0,        33.0,        33.0,        39.0,
        32.0,        23.0,        31.0,        23.0,
        34.0,        39.0,        37.0,        40.0,
        35.0,        35.0,        29.0,        34.0,
        37.0,        30.0,        34.0,        46.0,
        33.0,        36.0,        38.0,        40.0,
        32.0,        35.0,        34.0,        47.0,
        33.0,        29.0,        33.0,        38.0,
        45.0,        41.0,        37.0,        40.0,
        49.0,        62.0,        54.0,        50.0,
        67.0,        62.0,        68.0,        55.0,
        78.0,        72.0,        73.0,        66.0,
        63.0,        81.0,        81.0,        80.0,
        76.0,        88.0,        70.0,        73.0,
        74.0,        80.0,        94.0,        94.0,
        87.0,        82.0,        76.0,        61.0,
        81.0,        59.0,        55.0,        51.0,
        60.0,        57.0,        63.0,        72.0,
        41.0,        54.0,        60.0,        50.0,
        42.0,        48.0,        50.0,        34.0,
        33.0,        41.0,        30.0,        40.0,
        27.0,        33.0,        26.0,        30.0,
        29.0,        29.0,        19.0,        27.0,
        23.0,        16.0,        21.0,        26.0,
        28.0,        23.0,        16.0,        18.0,
        24.0,        29.0,        31.0,        21.0,
        39.0,        60.0,        56.0,        63.0,
        89.0,        98.0,        92.0,       108.0,
       121.0,       146.0,       147.0,       163.0,
       187.0,       199.0,       190.0,       192.0,
       138.0,       165.0,       148.0,       127.0,
        84.0,        78.0,        85.0,        67.0,
        41.0,        25.0,        33.0,        20.0,
        20.0,        18.0,        13.0,        18.0,
        21.0,        18.0,        15.0,        13.0,
        12.0,        12.0,         9.0,        15.0,
        13.0,         9.0,        10.0,         9.0,
        12.0,        21.0,        12.0,        12.0,
        16.0,        13.0,        16.0,        16.0,
        15.0,        20.0,        23.0,        19.0,
        20.0,        22.0,        26.0,        20.0,
        15.0,        20.0,        24.0,        12.0,
        16.0,        25.0,        19.0,        18.0,
        17.0,        22.0,        15.0,        19.0,
        18.0,        18.0,        18.0,        20.0,
        16.0,        21.0,        18.0,        14.0,
        17.0,        17.0,         9.0,        11.0,
        17.0,        19.0,        13.0,         6.0,
        12.0,         6.0,         8.0,         9.0,
        12.0,        11.0,        10.0,        13.0,
         8.0,        11.0,        10.0,        10.0,
        13.0,        13.0,         8.0,        10.0,
         9.0,        10.0,         6.0,         8.0,
        10.0,        12.0,         8.0,         6.0,
         8.0,         8.0,         7.0,         3.0,
         5.0,         7.0,         8.0,         6.0,
         7.0,         5.0,         4.0,         5.0,
         5.0,        12.0,         6.0,         2.0,
        10.0,        12.0,         9.0,         9.0,
        12.0,        13.0,        14.0,        15.0,
        26.0,        30.0,        25.0,        21.0,
        17.0,        29.0,        22.0,        22.0,
        17.0,        20.0,        12.0,        19.0,
        13.0,        14.0,         9.0,         7.0,
         4.0,         2.0,         8.0,         9.0,
         6.0,         6.0,         8.0,         6.0,
         4.0,         8.0,         8.0,         8.0,
         7.0,         6.0,         4.0,         6.0,
         6.0,         1.0,         6.0,         6.0,
         4.0,         3.0,         4.0,         3.0,
         4.0,         2.0,         2.0,         1.0,
         2.0,         3.0,         2.0,         2.0,
         2.0,         1.0,         3.0,         5.0,
         2.0,         3.0,         5.0,         4.0,
         5.0,         4.0,         2.0,         2.0,
         4.0,         4.0,         4.0,         1.0,
         3.0,         3.0,         5.0,         2.0,
         1.0,         2.0,         5.0,         4.0,
         4.0,         4.0,         1.0,         2.0,
         3.0,         2.0,         1.0,         2.0,
         4.0,         1.0,         1.0,         2.0,
         1.0,         1.0,         6.0,         5.0,
         1.0,         2.0,         2.0,         1.0,
         3.0,         4.0,         3.0,         1.0,
         1.0,         3.0,         1.0,         4.0,
         2.0,         3.0,         2.0,         5.0,
         0.0,         2.0,         1.0,         3.0,
         2.0,         1.0,         0.0,         3.0,
         2.0,         2.0,         1.0,         2.0,
         4.0,         3.0,         3.0,         1.0,
         3.0,         3.0,         4.0,         1.0,
         3.0,         3.0,         3.0,         5.0,
         4.0,         5.0,         2.0,         2.0,
         3.0,         3.0,         4.0,         2.0,
         3.0,         3.0,         4.0,         3.0,
         2.0,         3.0,         1.0,         0.0,
         2.0,         0.0,         0.0,         0.0,
         4.0,         2.0,         2.0,         2.0,
         2.0,         5.0,         5.0,         3.0,
         2.0,         1.0,         1.0,         2.0,
         2.0,         1.0,         2.0,         2.0,
         0.0,         0.0,         1.0,         0.0,
         2.0,         3.0,         2.0,         2.0,
         2.0,         2.0,         3.0,         2.0,
         0.0,         1.0,         1.0,         3.0,
         3.0,         1.0,         2.0,         2.0,
         1.0,         0.0,         2.0,         1.0,
         2.0,         1.0,         1.0,         2.0,
         1.0,         0.0,         1.0,         2.0,
         4.0,         2.0,         2.0,         1.0,
         2.0,         4.0,         1.0,         1.0,
         0.0,         2.0,         1.0,         0.0,
         0.0,         0.0,         1.0,         3.0,
         3.0,         1.0,         0.0,         1.0,
         0.0,         1.0,         0.0,         1.0,
         1.0,         2.0,         2.0,         1.0,
         3.0,         2.0,         0.0,         3.0,
         1.0,         0.0,         1.0,         0.0,
         1.0,         2.0,         1.0,         0.0,
         1.0,         1.0,         2.0,         2.0,
         2.0,         1.0,         0.0,         0.0,
         0.0,         0.0,         2.0,         1.0,
         0.0,         1.0,         0.0,         1.0,
         1.0,         1.0,         0.0,         1.0,
         0.0,         2.0,         2.0,         2.0,
         1.0,         2.0,         1.0,         1.0,
         1.0,         0.0,         1.0,         1.0,
         0.0,         1.0,         1.0,         0.0,
         1.0,         0.0,         1.0,         1.0,
         0.0,         0.0,         1.0,         0.0,
         2.0,         2.0,         1.0,         1.0,
         1.0,         1.0,         2.0,         1.0,
         1.0,         1.0,         1.0,         0.0,
         1.0,         1.0,         2.0,         0.0,
         0.0,         0.0,         0.0,         1.0,
         1.0,         2.0,         3.0,         1.0,
         1.0,         0.0,         2.0,         1.0,
         1.0,         2.0,         0.0,         0.0,
         1.0,         0.0,         1.0,         1.0,
         0.0,         0.0,         1.0,         1.0,
         0.0,         1.0,         0.0,         1.0,
         1.0,         1.0,         0.0,         0.0,
         1.0,         2.0,         0.0,         1.0,
         0.0,         1.0,         1.0,         0.0,
         1.0,         1.0,         0.0,         1.0,
         1.0,         0.0,         2.0,         2.0,
         1.0,         0.0,         1.0,         0.0,
         0.0,         1.0,         1.0,         1.0,
         0.0,         1.0,         0.0,         0.0,
         3.0,         1.0,         2.0,         1.0,
         2.0,         1.0,         0.0,         0.0,
         1.0,         1.0,         2.0,         3.0,
         0.0,         0.0,         1.0,         0.0,
         0.0,         1.0,         0.0,         2.0,
         0.0,         0.0,         2.0,         1.0,
         2.0,         1.0,         1.0,         1.0,
         1.0,         0.0,         0.0,         2.0,
         0.0,         2.0,         0.0,         2.0,
         0.0,         0.0,         0.0,         0.0,
         1.0,         1.0,         1.0,         0.0,
         0.0,         1.0,         0.0,         0.0,
         1.0,         0.0,         0.0,         0.0,
         0.0,         0.0,         0.0,         0.0,
         0.0,         1.0,         2.0,         0.0,
         1.0,         0.0,         2.0,         0.0,
         1.0,         1.0,         0.0,         0.0,
         0.0,         0.0,         0.0,         0.0,
         2.0,         0.0,         1.0,         1.0,
         2.0,         2.0,         0.0,         0.0,
         0.0,         0.0,         1.0,         0.0,
         0.0,         0.0,         0.0,         1.0,
         1.0,         0.0,         0.0,         1.0,
         0.0,         0.0,         0.0,         0.0,
         1.0,         1.0,         0.0,         0.0,
         0.0,         1.0,         0.0,         0.0,
         0.0,         0.0,         0.0,         0.0,
         1.0,         0.0,         1.0,         2.0,
         1.0,         0.0,         0.0,         0.0,
         3.0,         2.0,         0.0,         0.0,
         0.0,         0.0,         0.0,         0.0,
         0.0,         0.0,         0.0,         2.0,
         0.0,         0.0,         0.0,         0.0,
         0.0,         0.0,         0.0,         0.0,
         1.0,         0.0,         1.0,         0.0,
         1.0,         1.0,         0.0,         0.0,
         0.0,         1.0,         1.0,         0.0,
         0.0,         0.0,         0.0,         0.0,
         0.0,         0.0,         0.0,         0.0,
         0.0,         0.0,         1.0,         0.0,
         0.0,         0.0,         0.0,         0.0,
         0.0,         1.0,         1.0,         0.0,
         0.0,         0.0,         0.0,         0.0,
         0.0,         0.0,         0.0,         0.0,
         0.0,         2.0,         0.0,         0.0,
         0.0,         1.0,         0.0,         1.0,
         0.0,         0.0,         0.0,         1.0,
         1.0,         0.0,         2.0,         1.0,
         0.0,         0.0,         0.0,         0.0,
         0.0,         0.0,         0.0,         0.0,
         0.0,         0.0,         0.0,         0.0,
         0.0,         0.0,         0.0,         1.0,
         1.0,         0.0,         0.0,         0.0,
         0.0,         0.0,         0.0,         0.0,
         2.0,         0.0,         0.0,         1.0,
         0.0,         0.0,         1.0,         0.0,
         0.0,         0.0,         1.0,         1.0,
         0.0,         0.0,         0.0,         0.0,
         0.0,         1.0,         0.0,         0.0,
         0.0,         0.0,         0.0,         0.0,
         0.0,         1.0,         1.0,         0.0,
         0.0,         1.0,         0.0,         0.0,
         0.0,         0.0,         1.0,         0.0,
         2.0,         0.0,         0.0,         0.0,
         0.0,         1.0,         0.0,         0.0,
         0.0,         0.0,         0.0,         0.0,
         0.0,         0.0,         1.0,         0.0,
         0.0,         0.0,         0.0,         1.0,
         0.0,         0.0,         0.0,         0.0,
         0.0,         0.0,         0.0,         0.0,
         0.0,         0.0,         0.0,         0.0,
         0.0,         0.0,         0.0,         0.0,
         0.0,         0.0,         0.0,         0.0,
         0.0,         0.0,         0.0,         1.0,
         0.0,         0.0,         0.0,         0.0,
         0.0,         0.0,         0.0,         0.0,
         1.0,         0.0,         0.0,         0.0,
         0.0,         0.0,         0.0,         0.0,
         0.0,         0.0,         1.0,         0.0,
         0.0,         0.0,         0.0,         0.0,
         0.0,         0.0,         0.0,         0.0,
         1.0,         0.0,         0.0,         0.0,
         0.0,         0.0,         0.0,         0.0,
         0.0,         0.0,         0.0,         0.0,
         0.0,         0.0,         0.0,         0.0,
         0.0,         0.0,         0.0,         0.0,
         0.0,         0.0,         0.0,         0.0,
         0.0,         0.0,         0.0,         1.0,
         0.0,         0.0,         0.0,         0.0,
         0.0,         0.0,         0.0,         1.0,
         0.0,         0.0,         0.0,         0.0,
         0.0,         0.0,         0.0,         0.0,
         0.0,         0.0,         0.0,         0.0,
         0.0,         0.0,         0.0,         0.0,
         0.0,         0.0,         0.0,         1.0,
         0.0,         0.0,         0.0,         0.0,
         1.0,         0.0,         0.0,         0.0,
         0.0,         0.0,         0.0,         0.0,
         0.0,         0.0,         0.0,         0.0,
         0.0,         0.0,         0.0,         0.0,
         0.0,         0.0,         0.0,         1.0,
         0.0,         0.0,         0.0,         0.0,
         0.0,         0.0,         0.0,         0.0,
         0.0,         0.0,         0.0,         0.0,
         0.0,         0.0,         0.0,         0.0,
         0.0,         0.0,         0.0,         0.0,
         0.0,         0.0,         0.0,         0.0,
         0.0,         0.0,         0.0,         0.0,
         0.0,         0.0,         0.0,         1.0,
         0.0,         0.0,         0.0,         0.0,
         0.0,         0.0,         0.0,         1.0,
         0.0,         0.0,         0.0,         0.0,
         0.0,         0.0,         0.0,         0.0,
         0.0,         0.0,         0.0,         0.0,
         0.0,         0.0,         0.0,         0.0,
         0.0,         0.0,         0.0,         0.0,
         0.0,         0.0,         0.0,         0.0,
         0.0,         0.0,         0.0,         0.0,
         0.0,         0.0,         0.0,         0.0,
         0.0,         0.0,         0.0,         0.0,
         0.0,         0.0,         0.0,         0.0,
         0.0,         0.0,         0.0,         0.0,
         0.0,         0.0,         1.0,         0.0,
         0.0,         0.0,         0.0,         0.0,
         0.0,         0.0,         0.0,         0.0,
         0.0,         0.0,         0.0,         0.0,
         0.0,         0.0,         0.0,         1.0,
         0.0,         0.0,         0.0,         0.0,
         0.0,         0.0,         0.0,         0.0,
#ENDOFDATA   :