File: weave/XRF Stainless/Zr_50kv_50_ma_Rh_vac_D1.msa
#FORMAT      : EMSA/MAS SPECTRAL DATA FILE
#VERSION     : 1.0
#TITLE       : Bruker AXS spectrum Zr_50kv_50_ma_Rh_vac_D1.txt
#DATE        : 19-NOV-2019
#TIME        : 11:22
#OWNER       : Bruker AXS
#NPOINTS     : 4096.0
#NCOLUMNS    : 4.0
#XUNITS      : keV
#YUNITS      : Counts
#DATATYPE    : Y
#XPERCHAN    : 0.0099990
#OFFSET      : -0.9553045
#SIGNALTYPE  : EDS
#CHOFFSET    : 96
#LIVETIME  -s: 120.021
#REALTIME  -s: 126.540
##RTDET      : XFlash 430
#EDSDET      :
#TDEADLYR -cm: 0.000003
#TACTLYR  -cm: 0.045
##FANO       : 0.1135598
##MNFWHM -keV: 0.1439831
##IDENT      : ZrHfPdFeCaMnCoNi
#SPECTRUM    :
         0.0,         0.0,         0.0,         0.0,
         0.0,         0.0,         0.0,         0.0,
         0.0,         0.0,         0.0,         0.0,
         0.0,         0.0,         0.0,         0.0,
         0.0,         0.0,         0.0,         0.0,
         0.0,         0.0,         0.0,         0.0,
         0.0,         0.0,         0.0,         0.0,
         0.0,         0.0,         0.0,         0.0,
         0.0,         0.0,         0.0,         0.0,
         9.0,         9.0,        11.0,        14.0,
        15.0,        19.0,        36.0,        81.0,
      9800.0,     18823.0,     33520.0,     55308.0,
    146543.0,    133677.0,    110419.0,     82742.0,
      4583.0,      1951.0,       736.0,       269.0,
         8.0,         3.0,         5.0,         7.0,
         2.0,         2.0,         2.0,         5.0,
      -251.0,      -265.0,      -235.0,         0.0,
       176.0,       159.0,       200.0,       163.0,
       200.0,       178.0,       162.0,       163.0,
       186.0,       171.0,       154.0,       185.0,
       200.0,       197.0,       188.0,       187.0,
       190.0,       211.0,       208.0,       221.0,
       203.0,       205.0,       190.0,       212.0,
       177.0,       170.0,       175.0,       175.0,
       131.0,       150.0,       132.0,       134.0,
       128.0,       119.0,       113.0,       114.0,
        86.0,        85.0,        89.0,        90.0,
        87.0,        93.0,        85.0,        86.0,
        72.0,        77.0,        72.0,        76.0,
        72.0,        77.0,        71.0,        60.0,
        75.0,        69.0,        70.0,        75.0,
        80.0,        87.0,        88.0,        97.0,
       177.0,       185.0,       207.0,       237.0,
       303.0,       323.0,       338.0,       340.0,
       580.0,       631.0,       663.0,       681.0,
       602.0,       580.0,       554.0,       500.0,
       757.0,      1026.0,      1499.0,      2272.0,
     10020.0,     11846.0,     13687.0,     15174.0,
     14254.0,     13456.0,     12559.0,     11528.0,
      6690.0,      5658.0,      4809.0,      4090.0,
      1353.0,      1027.0,       817.0,       642.0,
       186.0,       152.0,       109.0,       103.0,
        57.0,        56.0,        63.0,        54.0,
       103.0,       129.0,       116.0,       109.0,
        79.0,        76.0,        70.0,        74.0,
       251.0,       312.0,       385.0,       444.0,
       558.0,       544.0,       523.0,       516.0,
       838.0,       934.0,      1036.0,      1054.0,
       766.0,       678.0,       580.0,       487.0,
       176.0,       156.0,       122.0,        88.0,
        33.0,        26.0,        20.0,        16.0,
        17.0,        16.0,        19.0,        14.0,
        11.0,        13.0,        15.0,        14.0,
        18.0,        12.0,        12.0,        12.0,
        14.0,        19.0,        19.0,        12.0,
        12.0,        15.0,        19.0,        15.0,
        14.0,        21.0,        16.0,        19.0,
        34.0,        39.0,        36.0,        47.0,
        58.0,        68.0,        80.0,        63.0,
        49.0,        37.0,        35.0,        28.0,
        18.0,        14.0,        17.0,        12.0,
        20.0,        21.0,        17.0,        21.0,
        25.0,        20.0,        21.0,        29.0,
        18.0,        17.0,        19.0,        21.0,
        15.0,        21.0,        26.0,        29.0,
        26.0,        38.0,        37.0,        31.0,
        38.0,        42.0,        40.0,        34.0,
        47.0,        43.0,        31.0,        34.0,
        43.0,        45.0,        53.0,        43.0,
        53.0,        65.0,        63.0,        56.0,
        84.0,       100.0,       109.0,        94.0,
       128.0,       118.0,       121.0,       119.0,
       117.0,       145.0,       136.0,       144.0,
       125.0,       128.0,       127.0,       113.0,
       120.0,       105.0,       101.0,       106.0,
       120.0,       118.0,       109.0,        95.0,
       103.0,       104.0,       102.0,       110.0,
       110.0,        92.0,        84.0,        85.0,
       102.0,        92.0,        96.0,        85.0,
        95.0,       107.0,       107.0,       103.0,
        77.0,        74.0,        77.0,        71.0,
        37.0,        38.0,        48.0,        45.0,
        41.0,        32.0,        47.0,        50.0,
        43.0,        46.0,        46.0,        42.0,
        58.0,        55.0,        68.0,        66.0,
        91.0,        95.0,        91.0,        92.0,
        92.0,        87.0,        81.0,        80.0,
        79.0,        87.0,        84.0,        85.0,
        64.0,        71.0,        73.0,        67.0,
        76.0,        71.0,        75.0,        78.0,
       118.0,       126.0,       154.0,       166.0,
       350.0,       403.0,       454.0,       508.0,
       661.0,       642.0,       640.0,       591.0,
       349.0,       295.0,       271.0,       238.0,
       156.0,       138.0,       137.0,       144.0,
       151.0,       134.0,       132.0,       151.0,
       152.0,       145.0,       163.0,       167.0,
       197.0,       188.0,       195.0,       221.0,
       279.0,       301.0,       283.0,       295.0,
       375.0,       376.0,       399.0,       376.0,
       371.0,       380.0,       370.0,       364.0,
       317.0,       279.0,       288.0,       287.0,
       249.0,       256.0,       253.0,       246.0,
       236.0,       226.0,       218.0,       228.0,
       261.0,       273.0,       273.0,       283.0,
       341.0,       343.0,       334.0,       324.0,
       295.0,       284.0,       278.0,       255.0,
       205.0,       190.0,       178.0,       179.0,
       219.0,       242.0,       262.0,       290.0,
       686.0,       808.0,       956.0,      1177.0,
      2255.0,      2497.0,      2657.0,      2785.0,
      2698.0,      2540.0,      2278.0,      2037.0,
       973.0,       824.0,       683.0,       588.0,
       311.0,       292.0,       297.0,       282.0,
       289.0,       274.0,       279.0,       247.0,
       299.0,       283.0,       277.0,       301.0,
       308.0,       319.0,       314.0,       327.0,
       328.0,       323.0,       334.0,       320.0,
       301.0,       313.0,       329.0,       336.0,
       347.0,       341.0,       334.0,       316.0,
       316.0,       314.0,       321.0,       325.0,
       310.0,       319.0,       318.0,       317.0,
       368.0,       360.0,       378.0,       446.0,
       773.0,       828.0,       917.0,      1048.0,
      1720.0,      1866.0,      1959.0,      2081.0,
      2008.0,      1995.0,      1928.0,      1844.0,
      1220.0,      1121.0,      1061.0,      1012.0,
       794.0,       792.0,       790.0,       825.0,
       922.0,       955.0,       975.0,       993.0,
      1034.0,      1002.0,       928.0,       895.0,
       649.0,       595.0,       553.0,       532.0,
       420.0,       393.0,       389.0,       378.0,
       354.0,       339.0,       362.0,       382.0,
       301.0,       307.0,       284.0,       275.0,
       270.0,       283.0,       282.0,       256.0,
       253.0,       264.0,       256.0,       242.0,
       231.0,       217.0,       217.0,       234.0,
       212.0,       219.0,       212.0,       221.0,
       225.0,       206.0,       218.0,       221.0,
       245.0,       224.0,       210.0,       212.0,
       215.0,       212.0,       236.0,       233.0,
       249.0,       265.0,       247.0,       255.0,
       360.0,       392.0,       449.0,       461.0,
       600.0,       605.0,       613.0,       619.0,
       542.0,       518.0,       504.0,       503.0,
       362.0,       357.0,       331.0,       333.0,
       342.0,       325.0,       313.0,       342.0,
       380.0,       391.0,       412.0,       418.0,
       376.0,       367.0,       374.0,       372.0,
       347.0,       322.0,       316.0,       300.0,
       296.0,       295.0,       300.0,       301.0,
       291.0,       313.0,       305.0,       290.0,
       334.0,       334.0,       325.0,       308.0,
       306.0,       316.0,       323.0,       313.0,
       328.0,       312.0,       305.0,       306.0,
       298.0,       313.0,       312.0,       305.0,
       305.0,       305.0,       292.0,       302.0,
       298.0,       303.0,       323.0,       295.0,
       294.0,       266.0,       270.0,       267.0,
       274.0,       273.0,       274.0,       265.0,
       261.0,       268.0,       262.0,       229.0,
       246.0,       248.0,       229.0,       234.0,
       236.0,       218.0,       224.0,       237.0,
       215.0,       220.0,       218.0,       221.0,
       217.0,       197.0,       204.0,       209.0,
       199.0,       186.0,       179.0,       186.0,
       172.0,       176.0,       181.0,       183.0,
       199.0,       204.0,       187.0,       176.0,
       203.0,       197.0,       174.0,       172.0,
       202.0,       197.0,       193.0,       193.0,
       227.0,       228.0,       209.0,       194.0,
       205.0,       193.0,       199.0,       204.0,
       212.0,       208.0,       202.0,       199.0,
       210.0,       208.0,       200.0,       197.0,
       201.0,       197.0,       195.0,       214.0,
       209.0,       211.0,       201.0,       199.0,
       212.0,       188.0,       192.0,       188.0,
       199.0,       196.0,       198.0,       201.0,
       193.0,       192.0,       205.0,       193.0,
       194.0,       186.0,       189.0,       194.0,
       202.0,       201.0,       195.0,       181.0,
       161.0,       187.0,       189.0,       187.0,
       193.0,       205.0,       186.0,       178.0,
       174.0,       174.0,       168.0,       171.0,
       170.0,       179.0,       182.0,       184.0,
       171.0,       187.0,       175.0,       151.0,
       172.0,       164.0,       150.0,       141.0,
       154.0,       148.0,       151.0,       150.0,
       154.0,       150.0,       158.0,       157.0,
       150.0,       145.0,       145.0,       167.0,
       167.0,       166.0,       146.0,       147.0,
       140.0,       141.0,       133.0,       144.0,
       153.0,       148.0,       150.0,       156.0,
       169.0,       158.0,       161.0,       154.0,
       146.0,       156.0,       174.0,       174.0,
       161.0,       159.0,       180.0,       165.0,
       217.0,       205.0,       209.0,       211.0,
       201.0,       200.0,       227.0,       226.0,
       213.0,       233.0,       252.0,       243.0,
       215.0,       256.0,       245.0,       258.0,
       266.0,       259.0,       274.0,       276.0,
       275.0,       265.0,       270.0,       252.0,
       290.0,       282.0,       277.0,       303.0,
       288.0,       317.0,       332.0,       332.0,
       459.0,       468.0,       500.0,       526.0,
      1168.0,      1421.0,      1685.0,      2084.0,
      6178.0,      7427.0,      9089.0,     10796.0,
     24532.0,     28001.0,     31640.0,     35335.0,
     54637.0,     57958.0,     60873.0,     63320.0,
     66396.0,     64959.0,     63352.0,     61069.0,
     42672.0,     38677.0,     34677.0,     30761.0,
     14069.0,     11477.0,      9499.0,      7821.0,
      2467.0,      1934.0,      1495.0,      1197.0,
       433.0,       361.0,       292.0,       269.0,
       178.0,       171.0,       165.0,       190.0,
       167.0,       137.0,       144.0,       158.0,
       154.0,       126.0,       137.0,       132.0,
       132.0,       125.0,       108.0,       120.0,
       134.0,       123.0,       111.0,       126.0,
       128.0,       142.0,       103.0,       106.0,
       138.0,       123.0,       111.0,       113.0,
       130.0,       110.0,       118.0,       122.0,
       122.0,       134.0,       141.0,       126.0,
       120.0,       132.0,       123.0,       126.0,
       118.0,       117.0,       133.0,       134.0,
       119.0,       148.0,       123.0,       123.0,
       141.0,       133.0,       145.0,       147.0,
       183.0,       164.0,       168.0,       176.0,
       191.0,       170.0,       181.0,       190.0,
       261.0,       293.0,       330.0,       373.0,
       902.0,      1092.0,      1269.0,      1480.0,
      3338.0,      3899.0,      4404.0,      4843.0,
      7875.0,      8385.0,      8586.0,      8978.0,
      9239.0,      8967.0,      8723.0,      8405.0,
      5671.0,      5124.0,      4586.0,      4133.0,
      2311.0,      2116.0,      1930.0,      1758.0,
      1488.0,      1465.0,      1447.0,      1418.0,
      1319.0,      1247.0,      1169.0,      1104.0,
       667.0,       575.0,       513.0,       447.0,
       170.0,       161.0,       117.0,       109.0,
        33.0,        20.0,        27.0,        27.0,
        12.0,        13.0,        11.0,        12.0,
         9.0,         8.0,        12.0,        13.0,
        10.0,         9.0,         8.0,         7.0,
        13.0,        16.0,        10.0,         3.0,
         9.0,        13.0,        12.0,        11.0,
        14.0,        12.0,        13.0,        13.0,
        12.0,         7.0,        10.0,        16.0,
        13.0,        14.0,        16.0,        15.0,
        15.0,        18.0,         7.0,        13.0,
        10.0,        16.0,        16.0,        12.0,
        15.0,        13.0,        10.0,        11.0,
         9.0,        14.0,        16.0,        13.0,
        15.0,        11.0,         9.0,         7.0,
         7.0,        10.0,         4.0,        10.0,
         8.0,         6.0,         9.0,         8.0,
         7.0,         8.0,         9.0,         4.0,
         4.0,         6.0,         6.0,         6.0,
         8.0,         6.0,         5.0,         4.0,
         5.0,         0.0,         3.0,         2.0,
        15.0,         9.0,        17.0,        11.0,
        13.0,        15.0,        21.0,        22.0,
        25.0,        27.0,        34.0,        47.0,
        55.0,        55.0,        65.0,        52.0,
        88.0,        57.0,        69.0,        72.0,
        58.0,        54.0,        47.0,        43.0,
        37.0,        37.0,        26.0,        29.0,
        12.0,        13.0,         6.0,        13.0,
         4.0,         5.0,         3.0,         3.0,
         3.0,         1.0,         3.0,         2.0,
         4.0,         1.0,         3.0,         0.0,
         3.0,         1.0,         1.0,         7.0,
         2.0,         5.0,         4.0,         4.0,
         3.0,         5.0,         1.0,         7.0,
         2.0,         5.0,         5.0,         3.0,
         6.0,         4.0,         2.0,         4.0,
         1.0,         5.0,         7.0,         2.0,
         8.0,         2.0,         2.0,         5.0,
         5.0,         2.0,        10.0,         6.0,
         7.0,         3.0,         7.0,         3.0,
         1.0,         2.0,         1.0,         4.0,
         3.0,         6.0,         6.0,         3.0,
         5.0,         3.0,         2.0,         5.0,
         1.0,         1.0,         3.0,         4.0,
         3.0,         4.0,         4.0,         3.0,
         1.0,         3.0,         2.0,         9.0,
         1.0,         3.0,         3.0,         3.0,
         7.0,         4.0,         0.0,         1.0,
         3.0,         1.0,         1.0,         3.0,
         0.0,         3.0,         2.0,         1.0,
         1.0,         2.0,         4.0,         3.0,
         2.0,         3.0,         2.0,         2.0,
         2.0,         3.0,         1.0,         0.0,
         6.0,         2.0,         2.0,         7.0,
         4.0,         4.0,         3.0,         7.0,
         9.0,         8.0,         9.0,        11.0,
        10.0,        14.0,         8.0,         5.0,
         6.0,         4.0,         2.0,         8.0,
         6.0,         7.0,         3.0,         3.0,
         5.0,         3.0,         5.0,         1.0,
         2.0,         0.0,         0.0,         2.0,
         0.0,         0.0,         1.0,         3.0,
         0.0,         2.0,         1.0,         2.0,
         1.0,         3.0,         3.0,         5.0,
         0.0,         1.0,         1.0,         1.0,
         0.0,         0.0,         1.0,         2.0,
         0.0,         0.0,         0.0,         2.0,
         0.0,         0.0,         0.0,         0.0,
         0.0,         0.0,         0.0,         0.0,
         0.0,         0.0,         0.0,         0.0,
         0.0,         0.0,         0.0,         2.0,
         0.0,         0.0,         1.0,         0.0,
         1.0,         1.0,         1.0,         0.0,
         0.0,         0.0,         0.0,         0.0,
         1.0,         1.0,         0.0,         0.0,
         0.0,         1.0,         1.0,         1.0,
         1.0,         1.0,         0.0,         0.0,
         0.0,         1.0,         0.0,         0.0,
         0.0,         1.0,         0.0,         0.0,
         0.0,         0.0,         0.0,         0.0,
         0.0,         2.0,         1.0,         1.0,
         1.0,         2.0,         0.0,         0.0,
         0.0,         0.0,         0.0,         1.0,
         0.0,         0.0,         0.0,         0.0,
         0.0,         0.0,         1.0,         0.0,
         0.0,         0.0,         0.0,         0.0,
         1.0,         0.0,         0.0,         1.0,
         0.0,         0.0,         0.0,         0.0,
         0.0,         0.0,         0.0,         0.0,
         0.0,         0.0,         1.0,         1.0,
         0.0,         1.0,         0.0,         1.0,
         0.0,         0.0,         0.0,         0.0,
         1.0,         0.0,         0.0,         1.0,
         0.0,         1.0,         0.0,         0.0,
         1.0,         0.0,         0.0,         0.0,
         1.0,         2.0,         1.0,         0.0,
         1.0,         0.0,         0.0,         0.0,
         0.0,         0.0,         1.0,         0.0,
         0.0,         1.0,         2.0,         1.0,
         0.0,         0.0,         0.0,         0.0,
         0.0,         0.0,         2.0,         1.0,
         3.0,         1.0,         0.0,         0.0,
         0.0,         0.0,         0.0,         3.0,
         0.0,         0.0,         1.0,         0.0,
         1.0,         0.0,         0.0,         2.0,
         0.0,         1.0,         3.0,         1.0,
         0.0,         0.0,         0.0,         0.0,
         0.0,         0.0,         0.0,         0.0,
         2.0,         1.0,         0.0,         0.0,
         0.0,         0.0,         0.0,         0.0,
         0.0,         0.0,         0.0,         0.0,
         1.0,         0.0,         1.0,         0.0,
         0.0,         0.0,         1.0,         2.0,
         0.0,         1.0,         0.0,         1.0,
         2.0,         0.0,         0.0,         1.0,
         1.0,         0.0,         0.0,         0.0,
         0.0,         2.0,         1.0,         1.0,
         2.0,         0.0,         1.0,         1.0,
         1.0,         1.0,         0.0,         0.0,
         1.0,         1.0,         0.0,         1.0,
         0.0,         0.0,         0.0,         0.0,
         0.0,         2.0,         1.0,         0.0,
         0.0,         0.0,         1.0,         0.0,
         1.0,         2.0,         1.0,         1.0,
         0.0,         2.0,         1.0,         0.0,
         0.0,         1.0,         0.0,         0.0,
         0.0,         1.0,         0.0,         0.0,
         1.0,         0.0,         0.0,         1.0,
         0.0,         0.0,         0.0,         0.0,
         0.0,         0.0,         0.0,         0.0,
         0.0,         1.0,         0.0,         0.0,
         0.0,         0.0,         0.0,         0.0,
         0.0,         0.0,         2.0,         1.0,
         1.0,         0.0,         0.0,         0.0,
         0.0,         0.0,         0.0,         1.0,
         0.0,         0.0,         2.0,         1.0,
         0.0,         1.0,         0.0,         0.0,
         0.0,         0.0,         0.0,         0.0,
         1.0,         2.0,         1.0,         2.0,
         0.0,         0.0,         1.0,         0.0,
         0.0,         0.0,         0.0,         0.0,
         0.0,         1.0,         0.0,         0.0,
         0.0,         1.0,         0.0,         0.0,
         0.0,         0.0,         0.0,         0.0,
         1.0,         0.0,         0.0,         2.0,
         0.0,         0.0,         2.0,         1.0,
         2.0,         0.0,         0.0,         0.0,
         0.0,         0.0,         0.0,         0.0,
         1.0,         1.0,         0.0,         0.0,
         1.0,         0.0,         0.0,         0.0,
         0.0,         0.0,         0.0,         1.0,
         0.0,         0.0,         0.0,         0.0,
         0.0,         2.0,         1.0,         0.0,
         1.0,         0.0,         0.0,         0.0,
         0.0,         0.0,         1.0,         0.0,
         1.0,         0.0,         0.0,         0.0,
         0.0,         1.0,         0.0,         0.0,
         0.0,         2.0,         1.0,         1.0,
         0.0,         1.0,         0.0,         0.0,
         2.0,         2.0,         3.0,         3.0,
         0.0,         0.0,         0.0,         0.0,
         2.0,         1.0,         0.0,         2.0,
         2.0,         1.0,         1.0,         2.0,
         1.0,         0.0,         0.0,         1.0,
         1.0,         1.0,         1.0,         1.0,
         1.0,         1.0,         2.0,         1.0,
         1.0,         1.0,         1.0,         1.0,
         1.0,         2.0,         1.0,         1.0,
         1.0,         1.0,         1.0,         1.0,
         2.0,         2.0,         1.0,         1.0,
         1.0,         0.0,         0.0,         3.0,
         1.0,         0.0,         2.0,         1.0,
         3.0,         2.0,         0.0,         1.0,
         2.0,         2.0,         0.0,         1.0,
         2.0,         2.0,         2.0,         2.0,
         1.0,         0.0,         0.0,         0.0,
         0.0,         0.0,         0.0,         0.0,
         0.0,         0.0,         0.0,         0.0,
         1.0,         0.0,         0.0,         0.0,
         0.0,         0.0,         0.0,         0.0,
         0.0,         0.0,         0.0,         0.0,
         0.0,         1.0,         1.0,         0.0,
         0.0,         0.0,         0.0,         0.0,
         0.0,         0.0,         0.0,         0.0,
         0.0,         0.0,         1.0,         0.0,
         0.0,         0.0,         0.0,         0.0,
         0.0,         0.0,         0.0,         0.0,
         0.0,         0.0,         0.0,         0.0,
         0.0,         0.0,         0.0,         0.0,
         0.0,         0.0,         0.0,         0.0,
         0.0,         0.0,         1.0,         2.0,
         0.0,         0.0,         0.0,         0.0,
         0.0,         0.0,         0.0,         0.0,
         0.0,         0.0,         1.0,         1.0,
         1.0,         0.0,         0.0,         0.0,
         0.0,         0.0,         0.0,         0.0,
         0.0,         1.0,         1.0,         0.0,
         0.0,         0.0,         0.0,         1.0,
         0.0,         0.0,         0.0,         0.0,
         0.0,         0.0,         0.0,         0.0,
         0.0,         0.0,         0.0,         0.0,
         1.0,         0.0,         0.0,         0.0,
         0.0,         1.0,         0.0,         0.0,
         0.0,         0.0,         0.0,         0.0,
         0.0,         1.0,         0.0,         0.0,
         0.0,         0.0,         0.0,         1.0,
         0.0,         0.0,         0.0,         0.0,
         0.0,         0.0,         0.0,         0.0,
         0.0,         0.0,         0.0,         0.0,
         0.0,         0.0,         0.0,         0.0,
         0.0,         0.0,         0.0,         0.0,
         0.0,         0.0,         0.0,         0.0,
         1.0,         1.0,         1.0,         1.0,
         0.0,         0.0,         0.0,         2.0,
         0.0,         2.0,         1.0,         0.0,
         1.0,         0.0,         0.0,         0.0,
         0.0,         0.0,         0.0,         0.0,
         1.0,         0.0,         0.0,         0.0,
         0.0,         0.0,         0.0,         0.0,
         0.0,         0.0,         0.0,         0.0,
         0.0,         1.0,         0.0,         0.0,
         1.0,         0.0,         0.0,         0.0,
         0.0,         0.0,         0.0,         0.0,
         0.0,         0.0,         0.0,         0.0,
         0.0,         0.0,         0.0,         2.0,
         0.0,         0.0,         0.0,         0.0,
         0.0,         0.0,         0.0,         0.0,
         0.0,         0.0,         0.0,         0.0,
         0.0,         0.0,         0.0,         0.0,
         0.0,         0.0,         0.0,         0.0,
         0.0,         0.0,         0.0,         0.0,
         0.0,         0.0,         0.0,         0.0,
         0.0,         0.0,         0.0,         0.0,
         0.0,         0.0,         0.0,         0.0,
         1.0,         0.0,         0.0,         0.0,
         0.0,         0.0,         0.0,         0.0,
         0.0,         0.0,         0.0,         0.0,
         0.0,         0.0,         0.0,         0.0,
         0.0,         0.0,         0.0,         0.0,
         0.0,         0.0,         0.0,         0.0,
         0.0,         0.0,         0.0,         0.0,
         0.0,         0.0,         0.0,         0.0,
         0.0,         0.0,         0.0,         0.0,
         0.0,         0.0,         0.0,         0.0,
         0.0,         0.0,         0.0,         0.0,
         0.0,         0.0,         0.0,         0.0,
         0.0,         0.0,         1.0,         0.0,
         0.0,         0.0,         0.0,         0.0,
         0.0,         0.0,         0.0,         0.0,
         0.0,         0.0,         0.0,         0.0,
         0.0,         0.0,         0.0,         0.0,
         0.0,         0.0,         0.0,         0.0,
         0.0,         0.0,         0.0,         0.0,
         0.0,         0.0,         0.0,         1.0,
         0.0,         0.0,         0.0,         0.0,
         0.0,         0.0,         0.0,         0.0,
         0.0,         0.0,         0.0,         0.0,
         0.0,         0.0,         0.0,         1.0,
         0.0,         0.0,         0.0,         0.0,
         0.0,         0.0,         1.0,         0.0,
         0.0,         0.0,         0.0,         0.0,
         0.0,         0.0,         0.0,         0.0,
         0.0,         0.0,         0.0,         0.0,
         0.0,         0.0,         0.0,         0.0,
         1.0,         0.0,         0.0,         0.0,
         0.0,         0.0,         0.0,         0.0,
         0.0,         0.0,         0.0,         0.0,
         0.0,         0.0,         0.0,         0.0,
         0.0,         0.0,         0.0,         0.0,
         0.0,         0.0,         0.0,         0.0,
         0.0,         0.0,         0.0,         0.0,
         0.0,         0.0,         0.0,         0.0,
         0.0,         0.0,         0.0,         0.0,
#ENDOFDATA   :