File: weave/K412 spectra/CaF2 std.msa
#FORMAT      : EMSA/MAS Spectral Data File
#VERSION     : 1.0
#TITLE       : CaF2 std
#DATE        : 07-MAY-2019
#TIME        : 02:23
#OWNER       : Unknown
#NPOINTS     : 4096
#NCOLUMNS    : 1
#XUNITS      : eV
#YUNITS      : counts
#DATATYPE    : Y
#XPERCHAN    : 9.99856
#OFFSET      : 1.63032
#BEAMKV      : 20
#SIGNALTYPE  : EDS
#ELEVANGLE   : 35
#AZIMANGLE   : 0
#LIVETIME    : 1176.1
#REALTIME    : 1456.12
#PROBECUR    : 1.10989
#TDEADLYR    : 0
#TACTLYR     : 0.045
#TALWIND     : 0.003
#CHOFFSET    : 0.0
#XLABEL      : Energy (eV)
#YLABEL      : Counts
#EDSDET      : SDUTW
##SPECIMEN   : CaF2 std
##D2STDCMP   : CaF2,(F:48.6667),(Ca:51.3333),3.18
##DET_HASH   : 97086dfe-e5c2-9c77-3984-1d0b14bbbf41
##CALIB_HASH : 1a36e884-c26d-3547-51b1-d0bb2efdf95a
##WORKING    : 17.0 mm
##SAMPLE     : <BulkSample id="1">\n<mOrientation id="2">\n<double>0.0</double>\n<double>0.0</double>\n<double>-1.0</double>\n</mOrientation>\n</BulkSample>
##CONDCOATING: 10.000 nm of Pure Carbon,(C:100.0),1.9
#SPECTRUM    :
27,
24,
11,
2,
12,
107,
749,
4968,
27937,
55721,
36617,
20041,
14847,
12013,
8462,
7705,
10432,
15228,
14980,
17117,
46686,
220495,
585685,
538037,
164808,
27211,
11896,
11510,
12356,
13343,
13974,
14631,
15108,
16002,
16834,
17527,
18381,
19467,
20668,
21859,
22627,
23966,
24666,
25299,
26345,
27310,
27111,
27714,
28585,
29695,
29746,
29290,
28595,
28412,
28499,
29089,
29498,
30699,
31549,
31842,
31603,
31624,
31382,
35781,
45612,
50828,
44243,
34258,
30432,
29350,
29550,
29238,
29501,
29438,
30001,
30895,
30751,
29642,
28525,
28302,
27546,
27729,
27772,
27301,
27173,
27076,
26676,
26805,
26603,
26175,
26173,
26238,
25754,
25473,
25536,
25066,
25256,
25096,
25090,
25096,
24645,
24571,
24518,
24440,
24141,
24592,
24542,
24199,
23747,
23217,
22804,
22691,
22369,
22245,
22391,
23196,
25189,
29737,
41095,
86680,
264126,
738587,
1463535,
1914380,
1628460,
907882,
344012,
102531,
38637,
29594,
38579,
69713,
136288,
213791,
244676,
194664,
109673,
48351,
22085,
14029,
12535,
12298,
12391,
13080,
13545,
14337,
14258,
13733,
12715,
11969,
11533,
11564,
11484,
11556,
11490,
11414,
11679,
11563,
11547,
11117,
11043,
11040,
11030,
11152,
10820,
10995,
10800,
10738,
10699,
10630,
10495,
10570,
10519,
10508,
10330,
10171,
10364,
10222,
10344,
10116,
10109,
10264,
9938,
9975,
9880,
9699,
9507,
9534,
9564,
9590,
9305,
9387,
9198,
9284,
9404,
9171,
9136,
9012,
8752,
8886,
8739,
8609,
8722,
8560,
8554,
8429,
8417,
8451,
8419,
8537,
8436,
8351,
8590,
8721,
8486,
8275,
8067,
7783,
7744,
7649,
7776,
7548,
7700,
7463,
7455,
7529,
7262,
7342,
7345,
7299,
7299,
7112,
7081,
6959,
7101,
6889,
6899,
6948,
6826,
6659,
6671,
6803,
6983,
7313,
8035,
9134,
9449,
9447,
8631,
7812,
6999,
6606,
6301,
6496,
6471,
6397,
6710,
6536,
6518,
6398,
6134,
6054,
5741,
5736,
5828,
5668,
5631,
5598,
5574,
5429,
5487,
5357,
5376,
5292,
5316,
5145,
5250,
5234,
4945,
5225,
5112,
4992,
4968,
4970,
5057,
4983,
4836,
4894,
4770,
4886,
4855,
4596,
4732,
4643,
4484,
4668,
4547,
4450,
4627,
4451,
4547,
4371,
4316,
4382,
4334,
4215,
4240,
4300,
4150,
4025,
4255,
4102,
4128,
4100,
4035,
4060,
3969,
3905,
3971,
3889,
3876,
3815,
3764,
3837,
3772,
3852,
3737,
3544,
3752,
3653,
3680,
3646,
3450,
3511,
3417,
3399,
3468,
3417,
3367,
3373,
3310,
3258,
3208,
3184,
3169,
3176,
3239,
3241,
3127,
3155,
3319,
3253,
3158,
3092,
2998,
3122,
3015,
2850,
2914,
2829,
2897,
2867,
2826,
2796,
2794,
2848,
2776,
2701,
2576,
2634,
2699,
2610,
2569,
2556,
2587,
2590,
2482,
2625,
2529,
2481,
2354,
2410,
2337,
2402,
2332,
2379,
2314,
2368,
2319,
2289,
2166,
2270,
2233,
2134,
2164,
2230,
2109,
2141,
2150,
2171,
2068,
2060,
2135,
2002,
1961,
1908,
1914,
1945,
1933,
1908,
1902,
1855,
1800,
1869,
1776,
1879,
1804,
1783,
1826,
1830,
1776,
1715,
1777,
1671,
1627,
1592,
1691,
1612,
1585,
1574,
1534,
1590,
1572,
1497,
1548,
1468,
1502,
1412,
1466,
1490,
1441,
1353,
1369,
1388,
1413,
1433,
1331,
1311,
1302,
1289,
1292,
1244,
1240,
1195,
1220,
1203,
1199,
1257,
1142,
1173,
1185,
1127,
1180,
1086,
1063,
1070,
1050,
1080,
1073,
1069,
967,
1020,
932,
997,
983,
952,
988,
979,
953,
946,
930,
871,
973,
835,
928,
912,
845,
955,
840,
831,
820,
828,
787,
823,
797,
794,
767,
790,
795,
765,
689,
684,
735,
738,
695,
676,
663,
674,
691,
680,
624,
646,
641,
590,
645,
622,
619,
605,
609,
604,
536,
583,
566,
540,
534,
544,
529,
518,
500,
499,
489,
476,
436,
486,
479,
478,
429,
455,
417,
480,
485,
407,
422,
420,
383,
384,
367,
412,
393,
394,
374,
372,
348,
347,
351,
354,
325,
310,
302,
345,
317,
330,
291,
311,
277,
295,
292,
294,
275,
251,
249,
268,
249,
273,
232,
233,
241,
213,
225,
210,
217,
222,
184,
213,
175,
209,
188,
187,
205,
183,
181,
178,
168,
157,
142,
159,
164,
161,
170,
145,
161,
128,
132,
119,
122,
133,
123,
145,
123,
111,
132,
115,
103,
124,
101,
102,
109,
102,
95,
85,
99,
80,
82,
74,
77,
80,
77,
80,
64,
77,
65,
78,
66,
68,
73,
66,
55,
52,
46,
39,
38,
55,
43,
41,
33,
34,
38,
23,
30,
25,
25,
28,
27,
22,
24,
18,
22,
21,
16,
17,
12,
12,
8,
7,
8,
3,
2,
3,
2,
2,
1,
3,
1,
0,
1,
2,
2,
3,
2,
2,
0,
0,
2,
2,
1,
1,
1,
0,
1,
0,
1,
2,
0,
1,
2,
0,
0,
1,
1,
1,
2,
0,
1,
0,
0,
1,
0,
1,
1,
3,
2,
3,
0,
0,
1,
1,
0,
1,
0,
1,
0,
1,
1,
0,
2,
0,
2,
0,
1,
0,
0,
0,
0,
0,
0,
0,
0,
1,
1,
2,
0,
1,
1,
0,
0,
0,
0,
1,
1,
0,
0,
0,
0,
0,
0,
0,
0,
0,
1,
0,
0,
0,
0,
1,
0,
0,
0,
0,
0,
0,
0,
0,
0,
1,
0,
0,
0,
2,
1,
0,
0,
0,
1,
1,
1,
0,
0,
1,
0,
0,
0,
0,
1,
0,
0,
0,
1,
0,
0,
0,
0,
0,
1,
0,
0,
0,
0,
0,
0,
1,
0,
0,
0,
0,
0,
0,
0,
0,
0,
0,
0,
0,
0,
0,
0,
0,
0,
0,
0,
1,
0,
0,
0,
0,
0,
1,
0,
0,
0,
0,
0,
0,
0,
0,
0,
1,
0,
0,
0,
0,
0,
0,
0,
0,
0,
0,
0,
0,
0,
0,
0,
0,
0,
0,
0,
0,
0,
1,
0,
0,
0,
0,
0,
0,
0,
0,
0,
0,
0,
0,
0,
0,
0,
0,
0,
1,
0,
0,
0,
0,
0,
0,
0,
0,
0,
0,
0,
0,
0,
0,
0,
0,
1,
0,
0,
0,
0,
0,
0,
0,
0,
0,
0,
0,
0,
0,
0,
0,
0,
0,
0,
0,
0,
0,
0,
0,
0,
0,
0,
0,
0,
0,
0,
0,
0,
0,
0,
0,
0,
0,
0,
0,
0,
0,
0,
0,
0,
0,
0,
0,
0,
0,
0,
0,
0,
0,
0,
0,
0,
0,
0,
0,
0,
0,
0,
0,
0,
0,
0,
0,
0,
0,
0,
0,
0,
0,
0,
0,
0,
0,
0,
0,
0,
0,
0,
0,
0,
0,
0,
0,
0,
0,
0,
0,
0,
0,
0,
0,
0,
0,
0,
0,
0,
0,
0,
0,
0,
0,
1,
0,
0,
0,
0,
0,
0,
0,
0,
0,
0,
0,
0,
0,
0,
0,
0,
0,
0,
0,
0,
0,
0,
0,
0,
0,
0,
0,
0,
0,
0,
0,
0,
0,
0,
0,
0,
0,
0,
0,
0,
0,
0,
0,
0,
0,
0,
0,
0,
0,
0,
0,
0,
0,
0,
0,
0,
0,
0,
0,
0,
0,
0,
0,
0,
0,
0,
0,
0,
0,
0,
0,
0,
0,
0,
0,
0,
0,
0,
0,
0,
0,
0,
0,
0,
0,
0,
0,
0,
0,
0,
0,
0,
0,
0,
0,
0,
0,
0,
0,
0,
0,
0,
0,
0,
0,
0,
0,
0,
0,
0,
0,
0,
0,
0,
0,
0,
0,
0,
0,
0,
0,
0,
0,
0,
0,
0,
0,
0,
0,
0,
0,
0,
0,
0,
0,
0,
0,
0,
0,
0,
0,
0,
0,
0,
0,
0,
0,
0,
0,
0,
0,
0,
0,
0,
0,
0,
0,
0,
0,
0,
0,
0,
0,
0,
0,
0,
0,
0,
0,
0,
0,
0,
0,
0,
0,
0,
0,
0,
0,
0,
0,
0,
0,
0,
0,
0,
0,
0,
0,
0,
0,
0,
0,
0,
0,
0,
0,
0,
0,
0,
0,
0,
0,
0,
0,
0,
0,
0,
0,
0,
0,
0,
0,
0,
0,
0,
0,
0,
0,
0,
0,
0,
0,
0,
0,
0,
0,
0,
0,
0,
0,
0,
0,
0,
0,
0,
0,
0,
0,
0,
0,
0,
0,
0,
0,
0,
0,
0,
0,
0,
0,
0,
0,
0,
0,
0,
0,
0,
0,
0,
0,
0,
0,
0,
0,
0,
0,
0,
0,
0,
0,
0,
0,
0,
0,
0,
0,
0,
0,
0,
0,
0,
0,
0,
0,
0,
0,
0,
0,
0,
0,
0,
0,
0,
0,
0,
0,
0,
0,
0,
0,
0,
0,
0,
0,
0,
0,
0,
0,
0,
0,
0,
0,
0,
0,
0,
0,
0,
0,
0,
0,
0,
0,
0,
0,
0,
0,
0,
0,
0,
0,
0,
0,
0,
0,
0,
0,
0,
0,
0,
0,
0,
0,
0,
0,
0,
0,
0,
0,
0,
0,
0,
0,
0,
0,
0,
0,
#ENDOFDATA   :