File: weave/K412 spectra/III-E K412[1][4].msa
#FORMAT      : EMSA/MAS Spectral Data File
#VERSION     : 1.0
#TITLE       : III-E K412[1][all]
#DATE        : 07-MAY-2019
#TIME        : 01:53
#OWNER       : Unknown
#NPOINTS     : 4096
#NCOLUMNS    : 1
#XUNITS      : eV
#YUNITS      : counts
#DATATYPE    : Y
#XPERCHAN    : 9.99856
#OFFSET      : 1.63032
#BEAMKV      : 20
#SIGNALTYPE  : EDS
#ELEVANGLE   : 35
#AZIMANGLE   : 0
#LIVETIME    : 235.433
#REALTIME    : 286.218
#PROBECUR    : 1.11355
#TDEADLYR    : 0
#TACTLYR     : 0.045
#TALWIND     : 0.003
#CHOFFSET    : 0.0
#XLABEL      : Energy (eV)
#YLABEL      : Counts
#XPOSITION   : -5.83953
#YPOSITION   : -12.39875
#ZPOSITION   : 31.37
#EDSDET      : SDUTW
##SPECIMEN   : III-E K412[1][all]
##D2STDCMP   : K412,(O:42.758),(Mg:11.6567),(Al:4.9061),(Si:21.1982),(Ca:10.899),(Fe:7.7742),3.5
##DET_HASH   : 97086dfe-e5c2-9c77-3984-1d0b14bbbf41
##CALIB_HASH : 1a36e884-c26d-3547-51b1-d0bb2efdf95a
##WORKING    : 17.0 mm
#SPECTRUM    :
1,
4,
2,
0,
3,
22,
93,
612,
3369,
6609,
3650,
1687,
1673,
1991,
3063,
10448,
51916,
122376,
90847,
20823,
3891,
2954,
4250,
8052,
7985,
4453,
2940,
2781,
3009,
3181,
3348,
3556,
3773,
4179,
4656,
5063,
5153,
5452,
5999,
10378,
35735,
97507,
123291,
68216,
20294,
7412,
5938,
8982,
24413,
50015,
52127,
27899,
11693,
7129,
6729,
13898,
56438,
161714,
231107,
161614,
62515,
22367,
11581,
6530,
4860,
4561,
4363,
4012,
3970,
3871,
3803,
3807,
3792,
3923,
4083,
4318,
4194,
4096,
3872,
3933,
3917,
3969,
3954,
3867,
3936,
3862,
3932,
3971,
3718,
3879,
3767,
3775,
3853,
3805,
3706,
3871,
3599,
3780,
3698,
3872,
3805,
3790,
3670,
3692,
3385,
3472,
3458,
3546,
3415,
3590,
3431,
3455,
3309,
3328,
3318,
3498,
3453,
3676,
3932,
5666,
12678,
30839,
58734,
75532,
64556,
36929,
15417,
5998,
3684,
3385,
3564,
4887,
7181,
10263,
11457,
9659,
6307,
3954,
2960,
2557,
2514,
2537,
2464,
2392,
2381,
2373,
2452,
2297,
2285,
2282,
2239,
2334,
2152,
2336,
2293,
2271,
2244,
2243,
2131,
2152,
2081,
2104,
2068,
2123,
2099,
2132,
2008,
2012,
2018,
2031,
1918,
1892,
2009,
1992,
1941,
1919,
1859,
1837,
1888,
1885,
2016,
1964,
1916,
1962,
1745,
1750,
1737,
1691,
1777,
1773,
1650,
1697,
1667,
1688,
1732,
1772,
1709,
1834,
1781,
1710,
1572,
1581,
1530,
1565,
1520,
1515,
1587,
1625,
1927,
2896,
5525,
10382,
16247,
19946,
18837,
14100,
8488,
4311,
2406,
1576,
1436,
1334,
1351,
1307,
1262,
1336,
1295,
1285,
1323,
1318,
1438,
1512,
1995,
2653,
3195,
3565,
3309,
2842,
2083,
1601,
1253,
1194,
1149,
1041,
1101,
1132,
1152,
1116,
1129,
1110,
1019,
1067,
1073,
1019,
1038,
1057,
1038,
1019,
1080,
992,
985,
964,
1004,
962,
955,
1002,
902,
945,
881,
970,
917,
916,
951,
927,
929,
884,
901,
902,
806,
829,
873,
871,
841,
863,
783,
864,
840,
725,
787,
807,
817,
775,
769,
793,
745,
765,
736,
738,
726,
730,
711,
714,
747,
755,
727,
711,
683,
671,
702,
674,
657,
682,
650,
714,
671,
693,
669,
695,
622,
681,
653,
662,
636,
659,
599,
593,
638,
638,
586,
602,
643,
602,
606,
564,
585,
548,
579,
551,
594,
568,
562,
566,
543,
524,
528,
508,
587,
515,
521,
553,
510,
476,
527,
528,
487,
503,
487,
512,
489,
500,
487,
442,
458,
457,
442,
450,
488,
471,
410,
451,
451,
392,
436,
444,
439,
408,
404,
375,
405,
415,
405,
383,
350,
384,
370,
391,
407,
408,
397,
341,
347,
393,
340,
333,
388,
370,
307,
370,
338,
379,
296,
327,
339,
325,
324,
322,
321,
318,
334,
342,
328,
303,
307,
287,
267,
278,
288,
295,
310,
294,
291,
272,
322,
259,
274,
277,
272,
284,
278,
264,
207,
259,
253,
236,
252,
240,
220,
264,
223,
196,
262,
219,
234,
227,
198,
244,
212,
220,
204,
193,
205,
193,
187,
183,
203,
214,
186,
168,
208,
193,
191,
170,
195,
178,
177,
183,
189,
195,
196,
195,
212,
150,
156,
167,
172,
150,
175,
152,
162,
162,
130,
163,
148,
145,
130,
133,
154,
139,
140,
133,
146,
145,
116,
120,
147,
134,
134,
123,
111,
107,
105,
105,
129,
110,
94,
110,
130,
108,
112,
107,
113,
93,
105,
103,
106,
98,
96,
114,
89,
82,
93,
99,
74,
91,
104,
76,
87,
83,
103,
93,
66,
69,
78,
72,
68,
64,
71,
52,
49,
59,
69,
55,
69,
76,
69,
59,
53,
56,
64,
58,
72,
57,
69,
74,
58,
53,
48,
49,
51,
47,
49,
47,
43,
41,
38,
46,
28,
44,
39,
52,
45,
36,
43,
49,
28,
37,
45,
55,
27,
37,
38,
31,
43,
37,
37,
37,
38,
31,
33,
25,
25,
36,
35,
28,
19,
25,
27,
14,
20,
20,
21,
18,
30,
17,
17,
17,
19,
17,
20,
10,
21,
29,
22,
17,
12,
21,
18,
10,
16,
10,
15,
12,
18,
6,
16,
15,
11,
11,
7,
7,
12,
15,
12,
10,
13,
7,
12,
6,
5,
6,
7,
10,
4,
7,
6,
8,
6,
5,
8,
2,
2,
4,
1,
3,
3,
5,
5,
1,
1,
1,
1,
0,
2,
3,
0,
1,
0,
2,
2,
0,
0,
1,
0,
0,
0,
1,
0,
1,
0,
0,
0,
0,
0,
0,
0,
0,
1,
0,
1,
0,
0,
1,
0,
0,
0,
0,
0,
0,
0,
0,
0,
0,
0,
0,
0,
0,
0,
1,
0,
0,
0,
0,
0,
0,
0,
0,
0,
0,
0,
0,
0,
0,
0,
0,
0,
0,
0,
0,
0,
0,
0,
0,
0,
0,
0,
0,
1,
0,
0,
0,
0,
0,
0,
0,
0,
0,
0,
0,
0,
0,
0,
0,
0,
0,
0,
0,
0,
0,
0,
0,
0,
0,
0,
0,
0,
0,
0,
0,
0,
0,
0,
0,
0,
0,
0,
0,
0,
0,
0,
0,
0,
0,
0,
0,
0,
0,
0,
0,
1,
0,
0,
0,
0,
0,
0,
0,
0,
0,
0,
0,
0,
0,
0,
0,
0,
0,
0,
0,
0,
0,
0,
0,
0,
0,
0,
1,
0,
1,
0,
0,
0,
0,
0,
0,
0,
0,
0,
0,
0,
0,
0,
0,
0,
0,
0,
0,
0,
0,
0,
0,
0,
0,
0,
1,
0,
0,
0,
0,
0,
0,
0,
0,
0,
0,
0,
0,
0,
0,
0,
0,
0,
0,
0,
0,
0,
0,
0,
0,
0,
0,
0,
0,
0,
0,
0,
0,
0,
0,
0,
0,
0,
0,
0,
0,
0,
0,
0,
0,
0,
0,
0,
0,
0,
0,
0,
0,
0,
0,
0,
0,
0,
0,
0,
0,
0,
0,
0,
0,
0,
0,
0,
0,
0,
0,
0,
0,
0,
0,
0,
0,
0,
0,
0,
0,
0,
0,
0,
0,
0,
0,
0,
0,
0,
0,
0,
0,
0,
0,
0,
0,
0,
0,
0,
0,
0,
0,
0,
0,
0,
0,
0,
0,
0,
0,
0,
0,
0,
0,
0,
0,
0,
0,
0,
0,
0,
0,
0,
0,
0,
0,
0,
0,
0,
0,
0,
0,
0,
0,
0,
0,
0,
0,
0,
0,
0,
0,
0,
0,
0,
0,
0,
0,
0,
0,
0,
0,
0,
0,
0,
0,
0,
0,
0,
0,
0,
0,
0,
0,
0,
0,
0,
0,
0,
0,
0,
0,
0,
0,
0,
0,
0,
0,
0,
0,
0,
0,
0,
0,
0,
0,
0,
0,
0,
0,
0,
0,
0,
0,
0,
0,
0,
0,
0,
0,
0,
0,
0,
0,
0,
0,
0,
0,
0,
0,
0,
0,
0,
0,
0,
0,
0,
0,
0,
0,
0,
0,
0,
0,
0,
0,
0,
0,
0,
0,
0,
0,
0,
0,
0,
0,
0,
0,
0,
0,
0,
0,
0,
0,
0,
0,
0,
0,
0,
0,
0,
0,
0,
0,
0,
0,
0,
0,
0,
0,
0,
0,
0,
0,
0,
0,
0,
0,
0,
0,
0,
0,
0,
0,
0,
0,
0,
0,
0,
0,
0,
0,
0,
0,
0,
0,
0,
0,
0,
0,
0,
0,
0,
0,
0,
0,
0,
0,
0,
0,
0,
0,
0,
0,
0,
0,
0,
0,
0,
0,
0,
0,
0,
0,
0,
0,
0,
0,
0,
0,
0,
0,
0,
0,
0,
0,
0,
0,
0,
0,
0,
0,
0,
0,
0,
0,
0,
0,
0,
0,
0,
0,
0,
0,
0,
0,
0,
0,
0,
0,
0,
0,
0,
0,
0,
0,
0,
0,
0,
0,
0,
0,
0,
0,
0,
0,
0,
0,
0,
0,
0,
0,
0,
0,
0,
0,
0,
0,
0,
0,
0,
0,
0,
0,
0,
0,
0,
0,
0,
0,
0,
0,
0,
0,
0,
0,
0,
0,
0,
0,
0,
0,
0,
0,
0,
0,
0,
0,
0,
0,
0,
0,
0,
0,
0,
0,
0,
0,
0,
0,
0,
0,
0,
0,
0,
0,
0,
0,
0,
0,
0,
0,
0,
0,
0,
0,
0,
0,
0,
0,
0,
0,
0,
0,
0,
0,
0,
0,
0,
0,
0,
0,
0,
0,
0,
0,
0,
0,
0,
0,
0,
0,
0,
0,
0,
0,
0,
0,
0,
0,
0,
0,
0,
0,
0,
0,
0,
0,
0,
0,
0,
0,
0,
0,
0,
0,
0,
0,
0,
0,
0,
0,
0,
0,
0,
0,
0,
0,
0,
0,
0,
0,
0,
0,
0,
0,
0,
0,
0,
0,
0,
0,
0,
0,
0,
0,
0,
0,
0,
0,
0,
0,
#ENDOFDATA   :