File: weave/K412 spectra/III-E K412[0][4].msa
#FORMAT      : EMSA/MAS Spectral Data File
#VERSION     : 1.0
#TITLE       : III-E K412[0][all]
#DATE        : 07-MAY-2019
#TIME        : 01:51
#OWNER       : Unknown
#NPOINTS     : 4096
#NCOLUMNS    : 1
#XUNITS      : eV
#YUNITS      : counts
#DATATYPE    : Y
#XPERCHAN    : 9.99856
#OFFSET      : 1.63032
#BEAMKV      : 20
#SIGNALTYPE  : EDS
#ELEVANGLE   : 35
#AZIMANGLE   : 0
#LIVETIME    : 235.484
#REALTIME    : 286.279
#PROBECUR    : 1.11355
#TDEADLYR    : 0
#TACTLYR     : 0.045
#TALWIND     : 0.003
#CHOFFSET    : 0.0
#XLABEL      : Energy (eV)
#YLABEL      : Counts
#XPOSITION   : -5.89156
#YPOSITION   : -12.39531
#ZPOSITION   : 31.37
#EDSDET      : SDUTW
##SPECIMEN   : III-E K412[0][all]
##D2STDCMP   : K412,(O:42.758),(Mg:11.6567),(Al:4.9061),(Si:21.1982),(Ca:10.899),(Fe:7.7742),3.5
##DET_HASH   : 97086dfe-e5c2-9c77-3984-1d0b14bbbf41
##CALIB_HASH : 1a36e884-c26d-3547-51b1-d0bb2efdf95a
##WORKING    : 17.0 mm
#SPECTRUM    :
4,
2,
0,
2,
4,
14,
85,
573,
3370,
6557,
3597,
1713,
1698,
1941,
3061,
10620,
51715,
122593,
90653,
20772,
3902,
2790,
4206,
7931,
8158,
4547,
2982,
2804,
2941,
3101,
3327,
3523,
3954,
4212,
4789,
4882,
5268,
5493,
6178,
10257,
35528,
98174,
122969,
67954,
20397,
7444,
5975,
8883,
24346,
50176,
52460,
27783,
11778,
7198,
6828,
13861,
56680,
162168,
232663,
161362,
63074,
22157,
11515,
6455,
5101,
4660,
4333,
4014,
3814,
3800,
3865,
3678,
3926,
3983,
4142,
4270,
4342,
4036,
3992,
3904,
3885,
3992,
4001,
3948,
3892,
3952,
3932,
3837,
3791,
3831,
3775,
3780,
3704,
3644,
3732,
3632,
3664,
3808,
3790,
3908,
3797,
3727,
3683,
3572,
3478,
3589,
3592,
3594,
3566,
3569,
3524,
3278,
3423,
3279,
3275,
3492,
3513,
3748,
4009,
5587,
12369,
30886,
58605,
75738,
64623,
37372,
15313,
6098,
3532,
3258,
3466,
4746,
7397,
10475,
11496,
9644,
6256,
3900,
2888,
2640,
2527,
2578,
2434,
2379,
2398,
2415,
2406,
2348,
2351,
2289,
2331,
2229,
2265,
2261,
2369,
2311,
2187,
2277,
2093,
2098,
2069,
1964,
2091,
2130,
2097,
2124,
2098,
2081,
2001,
1884,
2022,
1963,
1916,
2005,
1934,
1890,
1933,
1961,
1845,
1934,
1993,
1947,
1944,
1813,
1832,
1748,
1778,
1744,
1631,
1655,
1726,
1738,
1627,
1695,
1710,
1746,
1810,
1752,
1698,
1688,
1639,
1578,
1572,
1519,
1522,
1513,
1622,
1545,
1953,
2864,
5574,
10346,
16258,
20104,
19192,
14282,
8303,
4410,
2362,
1635,
1386,
1300,
1369,
1305,
1288,
1381,
1277,
1292,
1269,
1387,
1422,
1634,
1945,
2618,
3200,
3546,
3347,
2770,
2019,
1560,
1243,
1146,
1109,
1134,
1112,
1106,
1136,
1072,
1146,
1084,
1106,
1056,
1083,
1034,
1056,
1032,
1003,
1046,
1012,
980,
1017,
979,
948,
976,
958,
968,
954,
959,
997,
965,
965,
942,
920,
833,
948,
931,
858,
885,
862,
865,
835,
879,
851,
827,
759,
858,
833,
839,
797,
778,
766,
776,
742,
758,
806,
782,
768,
731,
750,
758,
784,
752,
736,
753,
670,
742,
763,
704,
705,
731,
708,
725,
679,
650,
620,
655,
698,
628,
647,
690,
604,
641,
657,
629,
607,
648,
618,
590,
592,
606,
590,
629,
557,
578,
578,
591,
556,
577,
585,
567,
550,
552,
566,
521,
574,
508,
531,
519,
573,
541,
509,
544,
548,
526,
510,
503,
487,
480,
455,
481,
466,
434,
429,
448,
456,
438,
453,
455,
460,
458,
400,
410,
421,
458,
391,
401,
444,
385,
375,
402,
395,
393,
393,
422,
395,
368,
371,
367,
370,
397,
355,
358,
334,
392,
345,
326,
337,
332,
350,
321,
313,
354,
350,
345,
333,
341,
302,
309,
306,
303,
308,
271,
277,
287,
289,
276,
275,
289,
303,
292,
294,
326,
278,
282,
253,
263,
287,
269,
245,
277,
245,
277,
239,
275,
227,
253,
223,
232,
253,
228,
211,
214,
233,
255,
206,
233,
229,
236,
210,
225,
217,
197,
174,
212,
203,
218,
175,
197,
192,
186,
183,
187,
186,
180,
158,
178,
175,
169,
181,
153,
162,
164,
152,
147,
151,
158,
176,
161,
151,
134,
137,
149,
131,
154,
159,
128,
127,
117,
151,
125,
120,
145,
128,
129,
125,
117,
146,
136,
127,
129,
109,
114,
106,
122,
107,
107,
96,
101,
132,
101,
121,
109,
92,
109,
104,
104,
83,
99,
79,
94,
86,
87,
96,
85,
78,
74,
76,
80,
79,
97,
73,
93,
69,
72,
92,
76,
66,
68,
66,
58,
89,
62,
55,
50,
58,
64,
66,
57,
66,
74,
57,
43,
58,
54,
60,
47,
52,
48,
59,
47,
63,
61,
41,
42,
42,
43,
40,
42,
57,
38,
44,
39,
56,
50,
51,
36,
40,
45,
32,
33,
30,
48,
39,
39,
28,
28,
26,
31,
27,
25,
33,
31,
21,
25,
32,
32,
19,
28,
31,
20,
24,
24,
12,
15,
22,
16,
18,
23,
19,
20,
23,
18,
7,
10,
17,
10,
16,
16,
13,
12,
15,
18,
14,
15,
15,
14,
20,
11,
18,
14,
8,
4,
5,
6,
6,
7,
8,
8,
7,
5,
5,
6,
8,
6,
6,
8,
3,
3,
4,
8,
6,
6,
7,
5,
3,
4,
1,
2,
2,
3,
1,
2,
1,
0,
1,
0,
0,
1,
1,
0,
0,
0,
0,
0,
1,
0,
0,
1,
0,
1,
0,
0,
0,
0,
0,
0,
1,
1,
0,
0,
0,
1,
0,
0,
0,
0,
0,
0,
0,
0,
0,
0,
0,
0,
0,
0,
0,
0,
0,
0,
0,
0,
0,
2,
0,
0,
0,
0,
0,
0,
0,
1,
0,
0,
1,
0,
0,
0,
0,
1,
0,
0,
0,
0,
0,
0,
0,
0,
0,
0,
0,
0,
0,
0,
0,
1,
0,
0,
0,
0,
0,
0,
0,
0,
1,
0,
0,
0,
0,
0,
0,
0,
0,
0,
0,
0,
0,
0,
0,
0,
0,
0,
0,
0,
0,
0,
0,
0,
0,
0,
0,
0,
0,
0,
0,
0,
0,
0,
0,
0,
0,
0,
0,
0,
0,
0,
0,
0,
0,
0,
0,
0,
0,
0,
0,
0,
0,
0,
0,
0,
0,
0,
0,
0,
0,
1,
0,
0,
0,
0,
0,
0,
0,
0,
0,
0,
0,
0,
0,
0,
0,
0,
0,
0,
0,
0,
0,
0,
0,
0,
0,
0,
0,
0,
0,
0,
0,
0,
0,
0,
0,
0,
0,
0,
0,
0,
0,
0,
0,
1,
0,
0,
0,
0,
0,
0,
0,
0,
0,
0,
0,
0,
0,
0,
0,
0,
0,
0,
0,
0,
0,
0,
0,
0,
0,
0,
0,
0,
0,
0,
0,
0,
0,
0,
0,
0,
0,
0,
0,
0,
0,
0,
0,
0,
0,
0,
0,
0,
0,
0,
0,
0,
0,
0,
0,
0,
0,
0,
0,
0,
0,
0,
0,
0,
0,
0,
0,
0,
0,
0,
0,
0,
0,
0,
0,
0,
0,
0,
0,
0,
0,
0,
0,
0,
0,
0,
0,
0,
0,
0,
0,
0,
0,
0,
0,
0,
0,
0,
0,
0,
0,
0,
0,
0,
0,
0,
0,
0,
0,
0,
0,
0,
0,
0,
0,
0,
0,
0,
0,
0,
0,
0,
0,
0,
0,
0,
0,
0,
0,
0,
0,
0,
0,
0,
0,
0,
0,
0,
0,
0,
0,
0,
0,
0,
0,
0,
0,
0,
0,
0,
0,
0,
0,
0,
0,
0,
0,
0,
0,
0,
0,
0,
0,
0,
0,
0,
0,
0,
0,
0,
0,
0,
0,
0,
0,
0,
0,
0,
0,
0,
0,
0,
0,
0,
0,
0,
0,
0,
0,
0,
0,
0,
0,
0,
0,
0,
0,
0,
0,
0,
0,
0,
0,
0,
0,
0,
0,
0,
0,
0,
0,
0,
0,
0,
0,
0,
0,
0,
0,
0,
0,
0,
0,
0,
0,
0,
0,
0,
0,
0,
0,
0,
0,
0,
0,
0,
0,
0,
0,
0,
0,
0,
0,
0,
0,
0,
0,
0,
0,
0,
0,
0,
0,
0,
0,
0,
0,
0,
0,
0,
0,
0,
0,
0,
0,
0,
0,
0,
0,
0,
0,
0,
0,
0,
0,
0,
0,
0,
0,
0,
0,
0,
0,
0,
0,
0,
0,
0,
0,
0,
0,
0,
0,
0,
0,
0,
0,
0,
0,
0,
0,
0,
0,
0,
0,
0,
0,
0,
0,
0,
0,
0,
0,
0,
0,
0,
0,
0,
0,
0,
0,
0,
0,
0,
0,
0,
0,
0,
0,
0,
0,
0,
0,
0,
0,
0,
0,
0,
0,
0,
0,
0,
0,
0,
0,
0,
0,
0,
0,
0,
0,
0,
0,
0,
0,
0,
0,
0,
0,
0,
0,
0,
0,
0,
0,
0,
0,
0,
0,
0,
0,
0,
0,
0,
0,
0,
0,
0,
0,
0,
0,
0,
0,
0,
0,
0,
0,
0,
0,
0,
0,
0,
0,
0,
0,
0,
0,
0,
0,
0,
0,
0,
0,
0,
0,
0,
0,
0,
0,
0,
0,
0,
0,
0,
0,
0,
0,
0,
0,
0,
0,
0,
0,
0,
0,
0,
0,
0,
0,
0,
0,
0,
0,
0,
0,
0,
0,
0,
0,
0,
0,
0,
0,
0,
0,
0,
0,
0,
0,
0,
0,
0,
0,
0,
0,
0,
0,
0,
0,
0,
0,
0,
0,
0,
0,
0,
0,
0,
0,
0,
0,
0,
0,
0,
0,
0,
0,
0,
0,
0,
0,
0,
0,
0,
0,
0,
0,
0,
0,
0,
0,
0,
0,
0,
0,
0,
0,
0,
0,
0,
0,
0,
0,
0,
0,
0,
#ENDOFDATA   :